submission_id,picture_middle,gender,comments,id,startDate,languages,block,endTime,response,pic1,type,bob,timeSpent,group,RT,check_ann,property_pic2,pic0,picture_left,check_behavior,age,question,trial_number,startTime,education,expected,selected_pic,experiment_id,answer,QUD,botresponse,question_long,prolific_id,picture_right,trial_name,pic2,pic3,property_pic3,score,property_pic1
3722,NA,female,,if1_hn,Fri Jun 17 2022 11:40:14 GMT-0400 (Eastern Daylight Time),English,NA,1655482432246,green,NA,training,NA,33.62286666666667,NA,26943,same-ifp,NA,NA,NA,cautious,29,NA,1,1655480414874,Higher Degree,blue|green,NA,82,NA,Use the buttons below to select all the blocks that you think will fall.<br/>(Multiple selections possible!),Susan,NA,61365f766033bc62f92053dc,NA,animation_buttons,NA,NA,NA,NA,NA
3722,NA,female,,if1_ln,Fri Jun 17 2022 11:40:14 GMT-0400 (Eastern Daylight Time),English,NA,1655482432246,blue|green,NA,training,NA,33.62286666666667,NA,11955,same-ifp,NA,NA,NA,cautious,29,NA,2,1655480414874,Higher Degree,none,NA,82,NA,Use the buttons below to select all the blocks that you think will fall.<br/>(Multiple selections possible!),Susan,NA,61365f766033bc62f92053dc,NA,animation_buttons,NA,NA,NA,NA,NA
3722,NA,female,,if2_nnh,Fri Jun 17 2022 11:40:14 GMT-0400 (Eastern Daylight Time),English,NA,1655482432246,none,NA,training,NA,33.62286666666667,NA,11269,same-ifp,NA,NA,NA,cautious,29,NA,3,1655480414874,Higher Degree,blue|yellow,NA,82,NA,Use the buttons below to select all the blocks that you think will fall.<br/>(Multiple selections possible!),Susan,NA,61365f766033bc62f92053dc,NA,animation_buttons,NA,NA,NA,NA,NA
3722,NA,female,,if1_nn,Fri Jun 17 2022 11:40:14 GMT-0400 (Eastern Daylight Time),English,NA,1655482432246,none,NA,training,NA,33.62286666666667,NA,9678,same-ifp,NA,NA,NA,cautious,29,NA,4,1655480414874,Higher Degree,none,NA,82,NA,Use the buttons below to select all the blocks that you think will fall.<br/>(Multiple selections possible!),Susan,NA,61365f766033bc62f92053dc,NA,animation_buttons,NA,NA,NA,NA,NA
3722,NA,female,,if1_ind_hn,Fri Jun 17 2022 11:40:14 GMT-0400 (Eastern Daylight Time),English,NA,1655482432246,blue|green,NA,training,NA,33.62286666666667,NA,12910,same-ifp,NA,NA,NA,cautious,29,NA,5,1655480414874,Higher Degree,blue,NA,82,NA,Use the buttons below to select all the blocks that you think will fall.<br/>(Multiple selections possible!),Susan,NA,61365f766033bc62f92053dc,NA,animation_buttons,NA,NA,NA,NA,NA
3722,NA,female,,if2_nnl,Fri Jun 17 2022 11:40:14 GMT-0400 (Eastern Daylight Time),English,NA,1655482432246,none,NA,training,NA,33.62286666666667,NA,8509,same-ifp,NA,NA,NA,cautious,29,NA,6,1655480414874,Higher Degree,none,NA,82,NA,Use the buttons below to select all the blocks that you think will fall.<br/>(Multiple selections possible!),Susan,NA,61365f766033bc62f92053dc,NA,animation_buttons,NA,NA,NA,NA,NA
3722,NA,female,,independent_edge_nh,Fri Jun 17 2022 11:40:14 GMT-0400 (Eastern Daylight Time),English,NA,1655482432246,green,NA,training,NA,33.62286666666667,NA,26413,same-ifp,NA,NA,NA,cautious,29,NA,7,1655480414874,Higher Degree,green,NA,82,NA,Use the buttons below to select all the blocks that you think will fall.<br/>(Multiple selections possible!),Susan,NA,61365f766033bc62f92053dc,NA,animation_buttons,NA,NA,NA,NA,NA
3722,NA,female,,if2_hnh,Fri Jun 17 2022 11:40:14 GMT-0400 (Eastern Daylight Time),English,NA,1655482432246,blue|green|yellow,NA,training,NA,33.62286666666667,NA,36477,same-ifp,NA,NA,NA,cautious,29,NA,8,1655480414874,Higher Degree,blue|green|yellow,NA,82,NA,Use the buttons below to select all the blocks that you think will fall.<br/>(Multiple selections possible!),Susan,NA,61365f766033bc62f92053dc,NA,animation_buttons,NA,NA,NA,NA,NA
3722,pic1,female,,trial8,Fri Jun 17 2022 11:40:14 GMT-0400 (Eastern Daylight Time),English,practice,1655482432246,pragmatic,if2_nnn_horiz.png,practice,pic2,33.62286666666667,group2,27550,same-ifp,pragmatic,ant_n.jpeg,pic3,cautious,29,NA,1,1655480414874,Higher Degree,,pic2,82,The YELLOW block will fall.,neutral,Susan,<b>Which blocks do you think will fall?</b>,61365f766033bc62f92053dc,pic2,image_selection,if2_nnh_right.png,if2_nnh.png,literal,100,contrast
3722,pic1,female,,trial7,Fri Jun 17 2022 11:40:14 GMT-0400 (Eastern Daylight Time),English,practice,1655482432246,pragmatic,if1_un.png,practice,pic3,33.62286666666667,group1,62702,same-ifp,literal,cons_n.jpeg,pic3,cautious,29,NA,2,1655480414874,Higher Degree,pic3,pic3,82,"If the ANT or the YELLOW block falls, the CONS block will fall.",neutral,Susan,<b>Which blocks do you think will fall?</b>,61365f766033bc62f92053dc,pic2,image_selection,if2_unn_horiz.png,if2_unu.png,pragmatic,100,contrast
3722,pic1,female,,trial25,Fri Jun 17 2022 11:40:14 GMT-0400 (Eastern Daylight Time),English,practice,1655482432246,literal,if2_unn_horiz.png,practice,pic3,33.62286666666667,group1,62630,same-ifp,contrast,ant_u.jpeg,pic3,cautious,29,NA,3,1655480414874,Higher Degree,pic3,pic3,82,"Even if the ANT block falls, the CONS block will NOT fall.",ifp,Susan,<b>What happens if the ANT block falls?</b>,61365f766033bc62f92053dc,pic2,image_selection,if1_uu.png,if1_un_ind.png,literal,100,contrast
3722,pic3,female,,trial11,Fri Jun 17 2022 11:40:14 GMT-0400 (Eastern Daylight Time),English,practice,1655482432246,literal,if1_un_ind.png,practice,pic3,33.62286666666667,group1,69645,same-ifp,literal,cons_n.jpeg,pic2,cautious,29,NA,4,1655480414874,Higher Degree,pic2_pic3,pic3,82,"If the ANT block falls, the CONS block will fall.",willq,Susan,<b>Will the CONS block fall?</b>,61365f766033bc62f92053dc,pic1,image_selection,if1_un.png,if1_un_up.png,literal,100,contrast
3722,pic2,female,,trial21,Fri Jun 17 2022 11:40:14 GMT-0400 (Eastern Daylight Time),English,test1,1655482432246,pragmatic,if1_nh.png,filler,pic2,33.62286666666667,group2,34702,same-ifp,pragmatic,ant_n.jpeg,pic3,cautious,29,NA,1,1655480414874,Higher Degree,,pic2,82,NEITHER the ANT NOR the CONS block will fall.,neutral,Susan,<b>Which blocks do you think will fall?</b>,61365f766033bc62f92053dc,pic1,image_selection_01,if2_nnh_right_ind.png,if2_nnn_horiz.png,literal,100,contrast
3722,pic2,female,,trial4,Fri Jun 17 2022 11:40:14 GMT-0400 (Eastern Daylight Time),English,test1,1655482432246,non-exhaustive,if1_un_ind.png,critical,pic3,33.62286666666667,group1,99309,same-ifp,exhaustive,ant_u.jpeg,pic3,cautious,29,NA,2,1655480414874,Higher Degree,,pic3,82,"If the ANT block falls, the CONS block will fall.",ifp,Susan,<b>What happens if the ANT block falls?</b>,61365f766033bc62f92053dc,pic1,image_selection_01,if1_un.png,if1_uu.png,non-exhaustive,100,contrast
3722,pic1,female,,trial13,Fri Jun 17 2022 11:40:14 GMT-0400 (Eastern Daylight Time),English,test1,1655482432246,contrast,if2_unn_ind_horiz.png,filler,pic3,33.62286666666667,group1,16694,same-ifp,literal,cons_n.jpeg,pic3,cautious,29,NA,3,1655480414874,Higher Degree,pic2_pic3,pic1,82,"If the ANT block falls, the CONS block will fall.",willq,Susan,<b>Will the CONS block fall?</b>,61365f766033bc62f92053dc,pic2,image_selection_01,if2_unn_horiz.png,if2_unn_up_horiz.png,literal,-100,contrast
3722,pic2,female,,trial5,Fri Jun 17 2022 11:40:14 GMT-0400 (Eastern Daylight Time),English,test1,1655482432246,contrast,if1_un_ind.png,critical,pic3,33.62286666666667,group1,181811,same-ifp,exhaustive,ant_u.jpeg,pic1,cautious,29,NA,4,1655480414874,Higher Degree,,pic1,82,"If the ANT block falls, the CONS block will fall.",ifp,Susan,<b>What happens if the ANT block falls?</b>,61365f766033bc62f92053dc,pic3,image_selection_01,if2_unn_horiz.png,if2_unu.png,non-exhaustive,-100,contrast
3722,pic1,female,,trial24,Fri Jun 17 2022 11:40:14 GMT-0400 (Eastern Daylight Time),English,test2,1655482432246,literal,if1_nn_ind.png,filler,pic2,33.62286666666667,group1,64845,same-ifp,pragmatic,cons_n.jpeg,pic2,cautious,29,NA,5,1655480414874,Higher Degree,pic2,pic3,82,The YELLOW and the CONS block will fall.,willq,Susan,<b>Will the CONS block fall?</b>,61365f766033bc62f92053dc,pic3,image_selection_01,if2_nnh.png,if2_hnh_right.png,literal,-100,contrast
3722,pic1,female,,trial6,Fri Jun 17 2022 11:40:14 GMT-0400 (Eastern Daylight Time),English,test2,1655482432246,contrast,if1_un_ind.png,critical,pic2,33.62286666666667,group1,62902,same-ifp,exhaustive,cons_n.jpeg,pic3,cautious,29,NA,6,1655480414874,Higher Degree,,pic1,82,"If the ANT block falls, the CONS block will fall.",willq,Susan,<b>Will the CONS block fall?</b>,61365f766033bc62f92053dc,pic2,image_selection_01,if2_unn_horiz.png,if2_unu.png,non-exhaustive,-100,contrast
3722,pic3,female,,trial23,Fri Jun 17 2022 11:40:14 GMT-0400 (Eastern Daylight Time),English,test2,1655482432246,literal,ind_edge_hh.png,attention-check,pic3,33.62286666666667,group2,18925,same-ifp,contrast,ant_ind_h.jpeg,pic1,cautious,29,NA,7,1655480414874,Higher Degree,pic3,pic3,82,NEITHER the YELLOW NOR the CONS block will fall.,neutral,Susan,<b>Which blocks do you think will fall?</b>,61365f766033bc62f92053dc,pic2,image_selection_01,ind_edge_hnh.png,ind_edge_hnn_horiz.png,literal,100,contrast
3722,pic2,female,,trial20,Fri Jun 17 2022 11:40:14 GMT-0400 (Eastern Daylight Time),English,test2,1655482432246,pragmatic,ind_edge_nn.png,filler,pic2,33.62286666666667,group1,21639,same-ifp,pragmatic,ant_ind_n.jpeg,pic3,cautious,29,NA,1,1655480414874,Higher Degree,,pic2,82,The CONS block will fall.,neutral,Susan,<b>Which blocks do you think will fall?</b>,61365f766033bc62f92053dc,pic1,image_selection_02,ind_edge_nhn.png,ind_edge_nhh.png,literal,100,contrast
3722,pic2,female,,trial1,Fri Jun 17 2022 11:40:14 GMT-0400 (Eastern Daylight Time),English,test2,1655482432246,non-exhaustive,if1_un_ind.png,critical,pic3,33.62286666666667,group2,104765,same-ifp,exhaustive,ant_u.jpeg,pic1,cautious,29,NA,2,1655480414874,Higher Degree,,pic3,82,"If the ANT block falls, the CONS block will fall.",ifp,Susan,<b>What happens if the ANT block falls?</b>,61365f766033bc62f92053dc,pic3,image_selection_02,if1_un.png,if2_unu.png,non-exhaustive,100,contrast
3722,pic2,female,,trial10,Fri Jun 17 2022 11:40:14 GMT-0400 (Eastern Daylight Time),English,test3,1655482432246,literal_contrast,if1_un_ind.png,filler,pic2,33.62286666666667,group1,37254,same-ifp,literal,ant_u.jpeg,pic1,cautious,29,NA,3,1655480414874,Higher Degree,pic2,pic2_pic3,82,"If the ANT block falls, the CONS block will fall.",ifp,Susan,<b>What happens if the ANT block falls?</b>,61365f766033bc62f92053dc,pic3,image_selection_02,if1_un.png,if2_unh_ind.png,contrast,50,contrast
3722,pic1,female,,trial2,Fri Jun 17 2022 11:40:14 GMT-0400 (Eastern Daylight Time),English,test3,1655482432246,exhaustive,if1_un_ind.png,critical,pic3,33.62286666666667,group2,27854,same-ifp,exhaustive,cons_n.jpeg,pic3,cautious,29,NA,4,1655480414874,Higher Degree,,pic2,82,"If the ANT block falls, the CONS block will fall.",willq,Susan,<b>Will the CONS block fall?</b>,61365f766033bc62f92053dc,pic2,image_selection_02,if1_un.png,if2_unu.png,non-exhaustive,-100,contrast
3722,pic3,female,,trial19,Fri Jun 17 2022 11:40:14 GMT-0400 (Eastern Daylight Time),English,test3,1655482432246,literal,ind_edge_hh.png,filler,pic2,33.62286666666667,group2,13911,same-ifp,pragmatic,ant_ind_h.jpeg,pic2,cautious,29,NA,5,1655480414874,Higher Degree,,pic3,82,The CONS block will NOT fall.,neutral,Susan,<b>Which blocks do you think will fall?</b>,61365f766033bc62f92053dc,pic1,image_selection_02,ind_edge_hnh.png,ind_edge_hnn_horiz.png,literal,-100,contrast
3722,pic2,female,,trial3,Fri Jun 17 2022 11:40:14 GMT-0400 (Eastern Daylight Time),English,test3,1655482432246,non-exhaustive,if1_un_ind.png,critical,pic2,33.62286666666667,group2,46285,same-ifp,exhaustive,ant_u.jpeg,pic1,cautious,29,NA,6,1655480414874,Higher Degree,,pic3,82,"If the ANT block falls, the CONS block will fall.",ifp,Susan,<b>What happens if the ANT block falls?</b>,61365f766033bc62f92053dc,pic3,image_selection_02,if2_unn_horiz.png,if1_uu.png,non-exhaustive,-100,contrast
3721,NA,female,it was a very interesting study and I enjoyed it thank you!,if1_hn,Fri Jun 17 2022 17:42:41 GMT+0200 (South Africa Standard Time),English,NA,1655482416574,blue|green,NA,training,NA,30.92245,NA,227188,ifp-willq,NA,NA,NA,cautious,26,NA,1,1655480561227,Graduated College,blue|green,NA,82,NA,Use the buttons below to select all the blocks that you think will fall.<br/>(Multiple selections possible!),Elizabeth,NA,60b7e1bcfe148de04d17624b,NA,animation_buttons,NA,NA,NA,NA,NA
3721,NA,female,it was a very interesting study and I enjoyed it thank you!,if1_ln,Fri Jun 17 2022 17:42:41 GMT+0200 (South Africa Standard Time),English,NA,1655482416574,blue|green,NA,training,NA,30.92245,NA,16653,ifp-willq,NA,NA,NA,cautious,26,NA,2,1655480561227,Graduated College,none,NA,82,NA,Use the buttons below to select all the blocks that you think will fall.<br/>(Multiple selections possible!),Elizabeth,NA,60b7e1bcfe148de04d17624b,NA,animation_buttons,NA,NA,NA,NA,NA
3721,NA,female,it was a very interesting study and I enjoyed it thank you!,if2_nnh,Fri Jun 17 2022 17:42:41 GMT+0200 (South Africa Standard Time),English,NA,1655482416574,blue|yellow,NA,training,NA,30.92245,NA,20197,ifp-willq,NA,NA,NA,cautious,26,NA,3,1655480561227,Graduated College,blue|yellow,NA,82,NA,Use the buttons below to select all the blocks that you think will fall.<br/>(Multiple selections possible!),Elizabeth,NA,60b7e1bcfe148de04d17624b,NA,animation_buttons,NA,NA,NA,NA,NA
3721,NA,female,it was a very interesting study and I enjoyed it thank you!,if2_nnl,Fri Jun 17 2022 17:42:41 GMT+0200 (South Africa Standard Time),English,NA,1655482416574,green|yellow,NA,training,NA,30.92245,NA,13007,ifp-willq,NA,NA,NA,cautious,26,NA,4,1655480561227,Graduated College,none,NA,82,NA,Use the buttons below to select all the blocks that you think will fall.<br/>(Multiple selections possible!),Elizabeth,NA,60b7e1bcfe148de04d17624b,NA,animation_buttons,NA,NA,NA,NA,NA
3721,NA,female,it was a very interesting study and I enjoyed it thank you!,if2_hnh,Fri Jun 17 2022 17:42:41 GMT+0200 (South Africa Standard Time),English,NA,1655482416574,blue|green|yellow,NA,training,NA,30.92245,NA,13982,ifp-willq,NA,NA,NA,cautious,26,NA,5,1655480561227,Graduated College,blue|green|yellow,NA,82,NA,Use the buttons below to select all the blocks that you think will fall.<br/>(Multiple selections possible!),Elizabeth,NA,60b7e1bcfe148de04d17624b,NA,animation_buttons,NA,NA,NA,NA,NA
3721,NA,female,it was a very interesting study and I enjoyed it thank you!,if1_nn,Fri Jun 17 2022 17:42:41 GMT+0200 (South Africa Standard Time),English,NA,1655482416574,none,NA,training,NA,30.92245,NA,6301,ifp-willq,NA,NA,NA,cautious,26,NA,6,1655480561227,Graduated College,none,NA,82,NA,Use the buttons below to select all the blocks that you think will fall.<br/>(Multiple selections possible!),Elizabeth,NA,60b7e1bcfe148de04d17624b,NA,animation_buttons,NA,NA,NA,NA,NA
3721,NA,female,it was a very interesting study and I enjoyed it thank you!,independent_edge_nh,Fri Jun 17 2022 17:42:41 GMT+0200 (South Africa Standard Time),English,NA,1655482416574,green,NA,training,NA,30.92245,NA,11731,ifp-willq,NA,NA,NA,cautious,26,NA,7,1655480561227,Graduated College,green,NA,82,NA,Use the buttons below to select all the blocks that you think will fall.<br/>(Multiple selections possible!),Elizabeth,NA,60b7e1bcfe148de04d17624b,NA,animation_buttons,NA,NA,NA,NA,NA
3721,NA,female,it was a very interesting study and I enjoyed it thank you!,if1_ind_hn,Fri Jun 17 2022 17:42:41 GMT+0200 (South Africa Standard Time),English,NA,1655482416574,blue|green,NA,training,NA,30.92245,NA,12068,ifp-willq,NA,NA,NA,cautious,26,NA,8,1655480561227,Graduated College,green,NA,82,NA,Use the buttons below to select all the blocks that you think will fall.<br/>(Multiple selections possible!),Elizabeth,NA,60b7e1bcfe148de04d17624b,NA,animation_buttons,NA,NA,NA,NA,NA
3721,pic2,female,it was a very interesting study and I enjoyed it thank you!,trial25,Fri Jun 17 2022 17:42:41 GMT+0200 (South Africa Standard Time),English,practice,1655482416574,literal,if2_unn_horiz.png,practice,pic3,30.92245,group2,52893,ifp-willq,contrast,ant_u.jpeg,pic3,cautious,26,NA,1,1655480561227,Graduated College,pic3,pic3,82,"Even if the ANT block falls, the CONS block will NOT fall.",ifp,Elizabeth,<b>What happens if the ANT block falls?</b>,60b7e1bcfe148de04d17624b,pic1,image_selection,if1_uu.png,if1_un_ind.png,literal,100,contrast
3721,pic3,female,it was a very interesting study and I enjoyed it thank you!,trial8,Fri Jun 17 2022 17:42:41 GMT+0200 (South Africa Standard Time),English,practice,1655482416574,pragmatic,if2_nnn_horiz.png,practice,pic2,30.92245,group2,37103,ifp-willq,pragmatic,ant_n.jpeg,pic1,cautious,26,NA,2,1655480561227,Graduated College,,pic2,82,The YELLOW block will fall.,neutral,Elizabeth,<b>Which blocks do you think will fall?</b>,60b7e1bcfe148de04d17624b,pic2,image_selection,if2_nnh_right.png,if2_nnh.png,literal,100,contrast
3721,pic3,female,it was a very interesting study and I enjoyed it thank you!,trial7,Fri Jun 17 2022 17:42:41 GMT+0200 (South Africa Standard Time),English,practice,1655482416574,pragmatic,if1_un.png,practice,pic3,30.92245,group2,43691,ifp-willq,literal,cons_n.jpeg,pic1,cautious,26,NA,3,1655480561227,Graduated College,pic3,pic3,82,"If the ANT or the YELLOW block falls, the CONS block will fall.",neutral,Elizabeth,<b>Which blocks do you think will fall?</b>,60b7e1bcfe148de04d17624b,pic2,image_selection,if2_unn_horiz.png,if2_unu.png,pragmatic,100,contrast
3721,pic1,female,it was a very interesting study and I enjoyed it thank you!,trial11,Fri Jun 17 2022 17:42:41 GMT+0200 (South Africa Standard Time),English,practice,1655482416574,literal,if1_un_ind.png,practice,pic2,30.92245,group2,38401,ifp-willq,literal,cons_n.jpeg,pic3,cautious,26,NA,4,1655480561227,Graduated College,pic2_pic3,pic3,82,"If the ANT block falls, the CONS block will fall.",willq,Elizabeth,<b>Will the CONS block fall?</b>,60b7e1bcfe148de04d17624b,pic2,image_selection,if1_un.png,if1_un_up.png,literal,-100,contrast
3721,pic3,female,it was a very interesting study and I enjoyed it thank you!,trial24,Fri Jun 17 2022 17:42:41 GMT+0200 (South Africa Standard Time),English,test1,1655482416574,pragmatic,if1_nn_ind.png,filler,pic2,30.92245,group2,32567,ifp-willq,pragmatic,cons_n.jpeg,pic2,cautious,26,NA,1,1655480561227,Graduated College,pic2,pic2,82,The YELLOW and the CONS block will fall.,willq,Elizabeth,<b>Will the CONS block fall?</b>,60b7e1bcfe148de04d17624b,pic1,image_selection_01,if2_nnh.png,if2_hnh_right.png,literal,100,contrast
3721,pic3,female,it was a very interesting study and I enjoyed it thank you!,trial3,Fri Jun 17 2022 17:42:41 GMT+0200 (South Africa Standard Time),English,test1,1655482416574,non-exhaustive,if1_un_ind.png,critical,pic2,30.92245,group1,28976,ifp-willq,exhaustive,ant_u.jpeg,pic1,cautious,26,NA,2,1655480561227,Graduated College,,pic3,82,"If the ANT block falls, the CONS block will fall.",ifp,Elizabeth,<b>What happens if the ANT block falls?</b>,60b7e1bcfe148de04d17624b,pic2,image_selection_01,if2_unn_horiz.png,if1_uu.png,non-exhaustive,-100,contrast
3721,pic1,female,it was a very interesting study and I enjoyed it thank you!,trial20,Fri Jun 17 2022 17:42:41 GMT+0200 (South Africa Standard Time),English,test1,1655482416574,pragmatic,ind_edge_nn.png,filler,pic2,30.92245,group2,37284,ifp-willq,pragmatic,ant_ind_n.jpeg,pic3,cautious,26,NA,3,1655480561227,Graduated College,,pic2,82,The CONS block will fall.,neutral,Elizabeth,<b>Which blocks do you think will fall?</b>,60b7e1bcfe148de04d17624b,pic2,image_selection_01,ind_edge_nhn.png,ind_edge_nhh.png,literal,100,contrast
3721,pic2,female,it was a very interesting study and I enjoyed it thank you!,trial2,Fri Jun 17 2022 17:42:41 GMT+0200 (South Africa Standard Time),English,test1,1655482416574,exhaustive,if1_un_ind.png,critical,pic3,30.92245,group1,47278,ifp-willq,exhaustive,cons_n.jpeg,pic1,cautious,26,NA,4,1655480561227,Graduated College,,pic2,82,"If the ANT block falls, the CONS block will fall.",willq,Elizabeth,<b>Will the CONS block fall?</b>,60b7e1bcfe148de04d17624b,pic3,image_selection_01,if1_un.png,if2_unu.png,non-exhaustive,-100,contrast
3721,pic2,female,it was a very interesting study and I enjoyed it thank you!,trial10,Fri Jun 17 2022 17:42:41 GMT+0200 (South Africa Standard Time),English,test2,1655482416574,literal,if1_un_ind.png,filler,pic2,30.92245,group2,33010,ifp-willq,literal,ant_u.jpeg,pic1,cautious,26,NA,5,1655480561227,Graduated College,pic2,pic2,82,"If the ANT block falls, the CONS block will fall.",ifp,Elizabeth,<b>What happens if the ANT block falls?</b>,60b7e1bcfe148de04d17624b,pic3,image_selection_01,if1_un.png,if2_unh_ind.png,contrast,100,contrast
3721,pic2,female,it was a very interesting study and I enjoyed it thank you!,trial6,Fri Jun 17 2022 17:42:41 GMT+0200 (South Africa Standard Time),English,test2,1655482416574,exhaustive,if1_un_ind.png,critical,pic3,30.92245,group2,29510,ifp-willq,exhaustive,cons_n.jpeg,pic1,cautious,26,NA,6,1655480561227,Graduated College,,pic2,82,"If the ANT block falls, the CONS block will fall.",willq,Elizabeth,<b>Will the CONS block fall?</b>,60b7e1bcfe148de04d17624b,pic3,image_selection_01,if2_unn_horiz.png,if2_unu.png,non-exhaustive,-100,contrast
3721,pic1,female,it was a very interesting study and I enjoyed it thank you!,trial23,Fri Jun 17 2022 17:42:41 GMT+0200 (South Africa Standard Time),English,test2,1655482416574,literal,ind_edge_hh.png,attention-check,pic3,30.92245,group1,230257,ifp-willq,contrast,ant_ind_h.jpeg,pic2,cautious,26,NA,7,1655480561227,Graduated College,pic3,pic3,82,NEITHER the YELLOW NOR the CONS block will fall.,neutral,Elizabeth,<b>Which blocks do you think will fall?</b>,60b7e1bcfe148de04d17624b,pic3,image_selection_01,ind_edge_hnh.png,ind_edge_hnn_horiz.png,literal,100,contrast
3721,pic2,female,it was a very interesting study and I enjoyed it thank you!,trial19,Fri Jun 17 2022 17:42:41 GMT+0200 (South Africa Standard Time),English,test2,1655482416574,pragmatic,ind_edge_hh.png,filler,pic3,30.92245,group1,50131,ifp-willq,pragmatic,ant_ind_h.jpeg,pic3,cautious,26,NA,1,1655480561227,Graduated College,,pic2,82,The CONS block will NOT fall.,neutral,Elizabeth,<b>Which blocks do you think will fall?</b>,60b7e1bcfe148de04d17624b,pic1,image_selection_02,ind_edge_hnh.png,ind_edge_hnn_horiz.png,literal,-100,contrast
3721,pic3,female,it was a very interesting study and I enjoyed it thank you!,trial1,Fri Jun 17 2022 17:42:41 GMT+0200 (South Africa Standard Time),English,test2,1655482416574,exhaustive,if1_un_ind.png,critical,pic3,30.92245,group2,52815,ifp-willq,exhaustive,ant_u.jpeg,pic2,cautious,26,NA,2,1655480561227,Graduated College,,pic2,82,"If the ANT block falls, the CONS block will fall.",ifp,Elizabeth,<b>What happens if the ANT block falls?</b>,60b7e1bcfe148de04d17624b,pic1,image_selection_02,if1_un.png,if2_unu.png,non-exhaustive,-100,contrast
3721,pic1,female,it was a very interesting study and I enjoyed it thank you!,trial13,Fri Jun 17 2022 17:42:41 GMT+0200 (South Africa Standard Time),English,test3,1655482416574,literal,if2_unn_ind_horiz.png,filler,pic2,30.92245,group1,84362,ifp-willq,literal,cons_n.jpeg,pic3,cautious,26,NA,3,1655480561227,Graduated College,pic2_pic3,pic2,82,"If the ANT block falls, the CONS block will fall.",willq,Elizabeth,<b>Will the CONS block fall?</b>,60b7e1bcfe148de04d17624b,pic2,image_selection_02,if2_unn_horiz.png,if2_unn_up_horiz.png,literal,100,contrast
3721,pic3,female,it was a very interesting study and I enjoyed it thank you!,trial4,Fri Jun 17 2022 17:42:41 GMT+0200 (South Africa Standard Time),English,test3,1655482416574,non-exhaustive,if1_un_ind.png,critical,pic3,30.92245,group2,33719,ifp-willq,exhaustive,ant_u.jpeg,pic2,cautious,26,NA,4,1655480561227,Graduated College,,pic3,82,"If the ANT block falls, the CONS block will fall.",ifp,Elizabeth,<b>What happens if the ANT block falls?</b>,60b7e1bcfe148de04d17624b,pic1,image_selection_02,if1_un.png,if1_uu.png,non-exhaustive,100,contrast
3721,pic2,female,it was a very interesting study and I enjoyed it thank you!,trial21,Fri Jun 17 2022 17:42:41 GMT+0200 (South Africa Standard Time),English,test3,1655482416574,contrast,if1_nh.png,filler,pic3,30.92245,group1,66973,ifp-willq,pragmatic,ant_n.jpeg,pic3,cautious,26,NA,5,1655480561227,Graduated College,,pic1,82,NEITHER the ANT NOR the CONS block will fall.,neutral,Elizabeth,<b>Which blocks do you think will fall?</b>,60b7e1bcfe148de04d17624b,pic1,image_selection_02,if2_nnh_right_ind.png,if2_nnn_horiz.png,literal,-100,contrast
3721,pic2,female,it was a very interesting study and I enjoyed it thank you!,trial5,Fri Jun 17 2022 17:42:41 GMT+0200 (South Africa Standard Time),English,test3,1655482416574,exhaustive,if1_un_ind.png,critical,pic2,30.92245,group1,30070,ifp-willq,exhaustive,ant_u.jpeg,pic1,cautious,26,NA,6,1655480561227,Graduated College,,pic2,82,"If the ANT block falls, the CONS block will fall.",ifp,Elizabeth,<b>What happens if the ANT block falls?</b>,60b7e1bcfe148de04d17624b,pic3,image_selection_02,if2_unn_horiz.png,if2_unu.png,non-exhaustive,100,contrast
3718,NA,female,,if1_hn,Fri Jun 17 2022 17:52:14 GMT+0200 (South Africa Standard Time),english,NA,1655482139618,blue,NA,training,NA,16.749066666666668,NA,48437,ifp-willq,NA,NA,NA,cautious,22,NA,1,1655481134674,Graduated College,blue|green,NA,82,NA,Use the buttons below to select all the blocks that you think will fall.<br/>(Multiple selections possible!),linda,NA,60bfb7216f6da5705b11ca15,NA,animation_buttons,NA,NA,NA,NA,NA
3718,NA,female,,if1_ln,Fri Jun 17 2022 17:52:14 GMT+0200 (South Africa Standard Time),english,NA,1655482139618,green,NA,training,NA,16.749066666666668,NA,31694,ifp-willq,NA,NA,NA,cautious,22,NA,2,1655481134674,Graduated College,none,NA,82,NA,Use the buttons below to select all the blocks that you think will fall.<br/>(Multiple selections possible!),linda,NA,60bfb7216f6da5705b11ca15,NA,animation_buttons,NA,NA,NA,NA,NA
3718,NA,female,,if2_nnh,Fri Jun 17 2022 17:52:14 GMT+0200 (South Africa Standard Time),english,NA,1655482139618,yellow,NA,training,NA,16.749066666666668,NA,34954,ifp-willq,NA,NA,NA,cautious,22,NA,3,1655481134674,Graduated College,blue|yellow,NA,82,NA,Use the buttons below to select all the blocks that you think will fall.<br/>(Multiple selections possible!),linda,NA,60bfb7216f6da5705b11ca15,NA,animation_buttons,NA,NA,NA,NA,NA
3718,NA,female,,if1_nn,Fri Jun 17 2022 17:52:14 GMT+0200 (South Africa Standard Time),english,NA,1655482139618,none,NA,training,NA,16.749066666666668,NA,9198,ifp-willq,NA,NA,NA,cautious,22,NA,4,1655481134674,Graduated College,none,NA,82,NA,Use the buttons below to select all the blocks that you think will fall.<br/>(Multiple selections possible!),linda,NA,60bfb7216f6da5705b11ca15,NA,animation_buttons,NA,NA,NA,NA,NA
3718,NA,female,,if1_ind_hn,Fri Jun 17 2022 17:52:14 GMT+0200 (South Africa Standard Time),english,NA,1655482139618,none,NA,training,NA,16.749066666666668,NA,16056,ifp-willq,NA,NA,NA,cautious,22,NA,5,1655481134674,Graduated College,green,NA,82,NA,Use the buttons below to select all the blocks that you think will fall.<br/>(Multiple selections possible!),linda,NA,60bfb7216f6da5705b11ca15,NA,animation_buttons,NA,NA,NA,NA,NA
3718,NA,female,,if2_nnl,Fri Jun 17 2022 17:52:14 GMT+0200 (South Africa Standard Time),english,NA,1655482139618,none,NA,training,NA,16.749066666666668,NA,7016,ifp-willq,NA,NA,NA,cautious,22,NA,6,1655481134674,Graduated College,none,NA,82,NA,Use the buttons below to select all the blocks that you think will fall.<br/>(Multiple selections possible!),linda,NA,60bfb7216f6da5705b11ca15,NA,animation_buttons,NA,NA,NA,NA,NA
3718,NA,female,,if2_hnh,Fri Jun 17 2022 17:52:14 GMT+0200 (South Africa Standard Time),english,NA,1655482139618,blue|yellow,NA,training,NA,16.749066666666668,NA,22237,ifp-willq,NA,NA,NA,cautious,22,NA,7,1655481134674,Graduated College,blue|green|yellow,NA,82,NA,Use the buttons below to select all the blocks that you think will fall.<br/>(Multiple selections possible!),linda,NA,60bfb7216f6da5705b11ca15,NA,animation_buttons,NA,NA,NA,NA,NA
3718,NA,female,,independent_edge_nh,Fri Jun 17 2022 17:52:14 GMT+0200 (South Africa Standard Time),english,NA,1655482139618,green,NA,training,NA,16.749066666666668,NA,9420,ifp-willq,NA,NA,NA,cautious,22,NA,8,1655481134674,Graduated College,green,NA,82,NA,Use the buttons below to select all the blocks that you think will fall.<br/>(Multiple selections possible!),linda,NA,60bfb7216f6da5705b11ca15,NA,animation_buttons,NA,NA,NA,NA,NA
3718,pic1,female,,trial11,Fri Jun 17 2022 17:52:14 GMT+0200 (South Africa Standard Time),english,practice,1655482139618,literal_literal,if1_un_ind.png,practice,pic3,16.749066666666668,group1,70788,ifp-willq,literal,cons_n.jpeg,pic3,cautious,22,NA,1,1655481134674,Graduated College,pic2_pic3,pic2_pic3,82,"If the ANT block falls, the CONS block will fall.",willq,linda,<b>Will the CONS block fall?</b>,60bfb7216f6da5705b11ca15,pic2,image_selection,if1_un.png,if1_un_up.png,literal,50,contrast
3718,pic1,female,,trial8,Fri Jun 17 2022 17:52:14 GMT+0200 (South Africa Standard Time),english,practice,1655482139618,pragmatic,if2_nnn_horiz.png,practice,pic2,16.749066666666668,group2,21836,ifp-willq,pragmatic,ant_n.jpeg,pic3,cautious,22,NA,2,1655481134674,Graduated College,,pic2,82,The YELLOW block will fall.,neutral,linda,<b>Which blocks do you think will fall?</b>,60bfb7216f6da5705b11ca15,pic2,image_selection,if2_nnh_right.png,if2_nnh.png,literal,100,contrast
3718,pic2,female,,trial7,Fri Jun 17 2022 17:52:14 GMT+0200 (South Africa Standard Time),english,practice,1655482139618,pragmatic,if1_un.png,practice,pic3,16.749066666666668,group2,23534,ifp-willq,literal,cons_n.jpeg,pic1,cautious,22,NA,3,1655481134674,Graduated College,pic3,pic3,82,"If the ANT or the YELLOW block falls, the CONS block will fall.",neutral,linda,<b>Which blocks do you think will fall?</b>,60bfb7216f6da5705b11ca15,pic3,image_selection,if2_unn_horiz.png,if2_unu.png,pragmatic,100,contrast
3718,pic2,female,,trial25,Fri Jun 17 2022 17:52:14 GMT+0200 (South Africa Standard Time),english,practice,1655482139618,literal,if2_unn_horiz.png,practice,pic3,16.749066666666668,group1,32417,ifp-willq,contrast,ant_u.jpeg,pic3,cautious,22,NA,4,1655481134674,Graduated College,pic3,pic3,82,"Even if the ANT block falls, the CONS block will NOT fall.",ifp,linda,<b>What happens if the ANT block falls?</b>,60bfb7216f6da5705b11ca15,pic1,image_selection,if1_uu.png,if1_un_ind.png,literal,100,contrast
3718,pic1,female,,trial19,Fri Jun 17 2022 17:52:14 GMT+0200 (South Africa Standard Time),english,test1,1655482139618,pragmatic_literal,ind_edge_hh.png,filler,pic3,16.749066666666668,group2,21267,ifp-willq,pragmatic,ant_ind_h.jpeg,pic3,cautious,22,NA,1,1655481134674,Graduated College,,pic2_pic3,82,The CONS block will NOT fall.,neutral,linda,<b>Which blocks do you think will fall?</b>,60bfb7216f6da5705b11ca15,pic2,image_selection_01,ind_edge_hnh.png,ind_edge_hnn_horiz.png,literal,50,contrast
3718,pic3,female,,trial3,Fri Jun 17 2022 17:52:14 GMT+0200 (South Africa Standard Time),english,test1,1655482139618,non-exhaustive,if1_un_ind.png,critical,pic3,16.749066666666668,group2,30514,ifp-willq,exhaustive,ant_u.jpeg,pic1,cautious,22,NA,2,1655481134674,Graduated College,,pic3,82,"If the ANT block falls, the CONS block will fall.",ifp,linda,<b>What happens if the ANT block falls?</b>,60bfb7216f6da5705b11ca15,pic2,image_selection_01,if2_unn_horiz.png,if1_uu.png,non-exhaustive,100,contrast
3718,pic2,female,,trial10,Fri Jun 17 2022 17:52:14 GMT+0200 (South Africa Standard Time),english,test1,1655482139618,literal,if1_un_ind.png,filler,pic2,16.749066666666668,group1,18001,ifp-willq,literal,ant_u.jpeg,pic1,cautious,22,NA,3,1655481134674,Graduated College,pic2,pic2,82,"If the ANT block falls, the CONS block will fall.",ifp,linda,<b>What happens if the ANT block falls?</b>,60bfb7216f6da5705b11ca15,pic3,image_selection_01,if1_un.png,if2_unh_ind.png,contrast,100,contrast
3718,pic1,female,,trial5,Fri Jun 17 2022 17:52:14 GMT+0200 (South Africa Standard Time),english,test1,1655482139618,exhaustive,if1_un_ind.png,critical,pic2,16.749066666666668,group2,31057,ifp-willq,exhaustive,ant_u.jpeg,pic3,cautious,22,NA,4,1655481134674,Graduated College,,pic2,82,"If the ANT block falls, the CONS block will fall.",ifp,linda,<b>What happens if the ANT block falls?</b>,60bfb7216f6da5705b11ca15,pic2,image_selection_01,if2_unn_horiz.png,if2_unu.png,non-exhaustive,100,contrast
3718,pic3,female,,trial24,Fri Jun 17 2022 17:52:14 GMT+0200 (South Africa Standard Time),english,test2,1655482139618,pragmatic,if1_nn_ind.png,filler,pic2,16.749066666666668,group2,25112,ifp-willq,pragmatic,cons_n.jpeg,pic1,cautious,22,NA,5,1655481134674,Graduated College,pic2,pic2,82,The YELLOW and the CONS block will fall.,willq,linda,<b>Will the CONS block fall?</b>,60bfb7216f6da5705b11ca15,pic2,image_selection_01,if2_nnh.png,if2_hnh_right.png,literal,100,contrast
3718,pic2,female,,trial1,Fri Jun 17 2022 17:52:14 GMT+0200 (South Africa Standard Time),english,test2,1655482139618,contrast,if1_un_ind.png,critical,pic3,16.749066666666668,group2,17697,ifp-willq,exhaustive,ant_u.jpeg,pic1,cautious,22,NA,6,1655481134674,Graduated College,,pic1,82,"If the ANT block falls, the CONS block will fall.",ifp,linda,<b>What happens if the ANT block falls?</b>,60bfb7216f6da5705b11ca15,pic3,image_selection_01,if1_un.png,if2_unu.png,non-exhaustive,-100,contrast
3718,pic2,female,,trial23,Fri Jun 17 2022 17:52:14 GMT+0200 (South Africa Standard Time),english,test2,1655482139618,literal,ind_edge_hh.png,attention-check,pic3,16.749066666666668,group2,30044,ifp-willq,contrast,ant_ind_h.jpeg,pic1,cautious,22,NA,7,1655481134674,Graduated College,pic3,pic3,82,NEITHER the YELLOW NOR the CONS block will fall.,neutral,linda,<b>Which blocks do you think will fall?</b>,60bfb7216f6da5705b11ca15,pic3,image_selection_01,ind_edge_hnh.png,ind_edge_hnn_horiz.png,literal,100,contrast
3718,pic1,female,,trial13,Fri Jun 17 2022 17:52:14 GMT+0200 (South Africa Standard Time),english,test2,1655482139618,literal,if2_unn_ind_horiz.png,filler,pic2,16.749066666666668,group2,61567,ifp-willq,literal,cons_n.jpeg,pic3,cautious,22,NA,1,1655481134674,Graduated College,pic2_pic3,pic2,82,"If the ANT block falls, the CONS block will fall.",willq,linda,<b>Will the CONS block fall?</b>,60bfb7216f6da5705b11ca15,pic2,image_selection_02,if2_unn_horiz.png,if2_unn_up_horiz.png,literal,100,contrast
3718,pic1,female,,trial2,Fri Jun 17 2022 17:52:14 GMT+0200 (South Africa Standard Time),english,test2,1655482139618,exhaustive_non-exhaustive,if1_un_ind.png,critical,pic2,16.749066666666668,group2,30997,ifp-willq,exhaustive,cons_n.jpeg,pic3,cautious,22,NA,2,1655481134674,Graduated College,,pic2_pic3,82,"If the ANT block falls, the CONS block will fall.",willq,linda,<b>Will the CONS block fall?</b>,60bfb7216f6da5705b11ca15,pic2,image_selection_02,if1_un.png,if2_unu.png,non-exhaustive,50,contrast
3718,pic3,female,,trial21,Fri Jun 17 2022 17:52:14 GMT+0200 (South Africa Standard Time),english,test3,1655482139618,contrast,if1_nh.png,filler,pic3,16.749066666666668,group2,17946,ifp-willq,pragmatic,ant_n.jpeg,pic2,cautious,22,NA,3,1655481134674,Graduated College,,pic1,82,NEITHER the ANT NOR the CONS block will fall.,neutral,linda,<b>Which blocks do you think will fall?</b>,60bfb7216f6da5705b11ca15,pic1,image_selection_02,if2_nnh_right_ind.png,if2_nnn_horiz.png,literal,-100,contrast
3718,pic1,female,,trial4,Fri Jun 17 2022 17:52:14 GMT+0200 (South Africa Standard Time),english,test3,1655482139618,non-exhaustive,if1_un_ind.png,critical,pic3,16.749066666666668,group2,21882,ifp-willq,exhaustive,ant_u.jpeg,pic3,cautious,22,NA,4,1655481134674,Graduated College,,pic3,82,"If the ANT block falls, the CONS block will fall.",ifp,linda,<b>What happens if the ANT block falls?</b>,60bfb7216f6da5705b11ca15,pic2,image_selection_02,if1_un.png,if1_uu.png,non-exhaustive,100,contrast
3718,pic2,female,,trial20,Fri Jun 17 2022 17:52:14 GMT+0200 (South Africa Standard Time),english,test3,1655482139618,pragmatic,ind_edge_nn.png,filler,pic3,16.749066666666668,group2,25230,ifp-willq,pragmatic,ant_ind_n.jpeg,pic3,cautious,22,NA,5,1655481134674,Graduated College,,pic2,82,The CONS block will fall.,neutral,linda,<b>Which blocks do you think will fall?</b>,60bfb7216f6da5705b11ca15,pic1,image_selection_02,ind_edge_nhn.png,ind_edge_nhh.png,literal,-100,contrast
3718,pic3,female,,trial6,Fri Jun 17 2022 17:52:14 GMT+0200 (South Africa Standard Time),english,test3,1655482139618,exhaustive,if1_un_ind.png,critical,pic3,16.749066666666668,group1,16975,ifp-willq,exhaustive,cons_n.jpeg,pic2,cautious,22,NA,6,1655481134674,Graduated College,,pic2,82,"If the ANT block falls, the CONS block will fall.",willq,linda,<b>Will the CONS block fall?</b>,60bfb7216f6da5705b11ca15,pic1,image_selection_02,if2_unn_horiz.png,if2_unu.png,non-exhaustive,-100,contrast
3715,NA,female,,if1_hn,Fri Jun 17 2022 16:40:24 GMT+0100 (British Summer Time),English,NA,1655481778550,blue,NA,training,NA,22.573766666666668,NA,45355,ifp-willq-yellow,NA,NA,NA,cautious,52,NA,1,1655480424124,,blue|green,NA,82,NA,Use the buttons below to select all the blocks that you think will fall.<br/>(Multiple selections possible!),Elizabeth,NA,5a049dd65d06850001aff4f9,NA,animation_buttons,NA,NA,NA,NA,NA
3715,NA,female,,if1_ln,Fri Jun 17 2022 16:40:24 GMT+0100 (British Summer Time),English,NA,1655481778550,blue|green,NA,training,NA,22.573766666666668,NA,29950,ifp-willq-yellow,NA,NA,NA,cautious,52,NA,2,1655480424124,,none,NA,82,NA,Use the buttons below to select all the blocks that you think will fall.<br/>(Multiple selections possible!),Elizabeth,NA,5a049dd65d06850001aff4f9,NA,animation_buttons,NA,NA,NA,NA,NA
3715,NA,female,,if1_ind_hn,Fri Jun 17 2022 16:40:24 GMT+0100 (British Summer Time),English,NA,1655481778550,green,NA,training,NA,22.573766666666668,NA,27874,ifp-willq-yellow,NA,NA,NA,cautious,52,NA,3,1655480424124,,green,NA,82,NA,Use the buttons below to select all the blocks that you think will fall.<br/>(Multiple selections possible!),Elizabeth,NA,5a049dd65d06850001aff4f9,NA,animation_buttons,NA,NA,NA,NA,NA
3715,NA,female,,if1_nn,Fri Jun 17 2022 16:40:24 GMT+0100 (British Summer Time),English,NA,1655481778550,blue|green,NA,training,NA,22.573766666666668,NA,23533,ifp-willq-yellow,NA,NA,NA,cautious,52,NA,4,1655480424124,,none,NA,82,NA,Use the buttons below to select all the blocks that you think will fall.<br/>(Multiple selections possible!),Elizabeth,NA,5a049dd65d06850001aff4f9,NA,animation_buttons,NA,NA,NA,NA,NA
3715,NA,female,,if2_nnh,Fri Jun 17 2022 16:40:24 GMT+0100 (British Summer Time),English,NA,1655481778550,green|yellow,NA,training,NA,22.573766666666668,NA,19919,ifp-willq-yellow,NA,NA,NA,cautious,52,NA,5,1655480424124,,blue|yellow,NA,82,NA,Use the buttons below to select all the blocks that you think will fall.<br/>(Multiple selections possible!),Elizabeth,NA,5a049dd65d06850001aff4f9,NA,animation_buttons,NA,NA,NA,NA,NA
3715,NA,female,,if2_nnl,Fri Jun 17 2022 16:40:24 GMT+0100 (British Summer Time),English,NA,1655481778550,green|yellow,NA,training,NA,22.573766666666668,NA,21307,ifp-willq-yellow,NA,NA,NA,cautious,52,NA,6,1655480424124,,none,NA,82,NA,Use the buttons below to select all the blocks that you think will fall.<br/>(Multiple selections possible!),Elizabeth,NA,5a049dd65d06850001aff4f9,NA,animation_buttons,NA,NA,NA,NA,NA
3715,NA,female,,independent_edge_nh,Fri Jun 17 2022 16:40:24 GMT+0100 (British Summer Time),English,NA,1655481778550,blue|green,NA,training,NA,22.573766666666668,NA,26409,ifp-willq-yellow,NA,NA,NA,cautious,52,NA,7,1655480424124,,blue,NA,82,NA,Use the buttons below to select all the blocks that you think will fall.<br/>(Multiple selections possible!),Elizabeth,NA,5a049dd65d06850001aff4f9,NA,animation_buttons,NA,NA,NA,NA,NA
3715,NA,female,,if2_hnh,Fri Jun 17 2022 16:40:24 GMT+0100 (British Summer Time),English,NA,1655481778550,blue|green|yellow,NA,training,NA,22.573766666666668,NA,26983,ifp-willq-yellow,NA,NA,NA,cautious,52,NA,8,1655480424124,,blue|green|yellow,NA,82,NA,Use the buttons below to select all the blocks that you think will fall.<br/>(Multiple selections possible!),Elizabeth,NA,5a049dd65d06850001aff4f9,NA,animation_buttons,NA,NA,NA,NA,NA
3715,pic2,female,,trial11,Fri Jun 17 2022 16:40:24 GMT+0100 (British Summer Time),English,practice,1655481778550,contrast_literal,if1_un_ind.png,practice,pic3,22.573766666666668,group2,39421,ifp-willq-yellow,literal,cons_n.jpeg,pic1,cautious,52,NA,1,1655480424124,,pic2_pic3,pic1_pic3,82,"If the ANT block falls, the CONS block will fall.",willq,Elizabeth,<b>Will the CONS block fall?</b>,5a049dd65d06850001aff4f9,pic3,image_selection,if1_un.png,if1_un_up.png,literal,50,contrast
3715,pic3,female,,trial8,Fri Jun 17 2022 16:40:24 GMT+0100 (British Summer Time),English,practice,1655481778550,pragmatic_literal,if2_nnn_horiz.png,practice,pic2,22.573766666666668,group1,28771,ifp-willq-yellow,pragmatic,ant_n.jpeg,pic1,cautious,52,NA,2,1655480424124,,,pic2_pic3,82,The YELLOW block will fall.,neutral,Elizabeth,<b>Which blocks do you think will fall?</b>,5a049dd65d06850001aff4f9,pic2,image_selection,if2_nnh_right.png,if2_nnh.png,literal,50,contrast
3715,pic3,female,,trial7,Fri Jun 17 2022 16:40:24 GMT+0100 (British Summer Time),English,practice,1655481778550,pragmatic,if1_un.png,practice,pic3,22.573766666666668,group1,47443,ifp-willq-yellow,literal,cons_n.jpeg,pic2,cautious,52,NA,3,1655480424124,,pic3,pic3,82,"If the ANT or the YELLOW block falls, the CONS block will fall.",neutral,Elizabeth,<b>Which blocks do you think will fall?</b>,5a049dd65d06850001aff4f9,pic1,image_selection,if2_unn_horiz.png,if2_unu.png,pragmatic,100,contrast
3715,pic1,female,,trial25,Fri Jun 17 2022 16:40:24 GMT+0100 (British Summer Time),English,practice,1655481778550,contrast_literal,if2_unn_horiz.png,practice,pic3,22.573766666666668,group2,65948,ifp-willq-yellow,contrast,ant_u.jpeg,pic2,cautious,52,NA,4,1655480424124,,pic3,pic1_pic3,82,"Even if the ANT block falls, the CONS block will NOT fall.",ifp,Elizabeth,<b>What happens if the ANT block falls?</b>,5a049dd65d06850001aff4f9,pic3,image_selection,if1_uu.png,if1_un_ind.png,literal,50,contrast
3715,pic1,female,,trial13,Fri Jun 17 2022 16:40:24 GMT+0100 (British Summer Time),English,test1,1655481778550,contrast_literal,if2_unn_ind_horiz.png,filler,pic3,22.573766666666668,group2,37252,ifp-willq-yellow,literal,cons_n.jpeg,pic2,cautious,52,NA,1,1655480424124,,pic2_pic3,pic1_pic3,82,"If the ANT block falls, the CONS block will fall.",willq,Elizabeth,<b>Will the CONS block fall?</b>,5a049dd65d06850001aff4f9,pic3,image_selection_01,if2_unn_horiz.png,if2_unn_up_horiz.png,literal,50,contrast
3715,pic3,female,,trial5,Fri Jun 17 2022 16:40:24 GMT+0100 (British Summer Time),English,test1,1655481778550,exhaustive,if1_un_ind.png,critical,pic3,22.573766666666668,group1,30892,ifp-willq-yellow,exhaustive,ant_u.jpeg,pic1,cautious,52,NA,2,1655480424124,,,pic2,82,"If the ANT block falls, the CONS block will fall.",ifp,Elizabeth,<b>What happens if the ANT block falls?</b>,5a049dd65d06850001aff4f9,pic2,image_selection_01,if2_unn_horiz.png,if2_unu.png,non-exhaustive,-100,contrast
3715,pic3,female,,trial10,Fri Jun 17 2022 16:40:24 GMT+0100 (British Summer Time),English,test1,1655481778550,contrast_literal,if1_un_ind.png,filler,pic2,22.573766666666668,group1,39956,ifp-willq-yellow,literal,ant_u.jpeg,pic2,cautious,52,NA,3,1655480424124,,pic2,pic1_pic2,82,"If the ANT block falls, the CONS block will fall.",ifp,Elizabeth,<b>What happens if the ANT block falls?</b>,5a049dd65d06850001aff4f9,pic1,image_selection_01,if1_un.png,if2_unh_ind.png,contrast,50,contrast
3715,pic2,female,,trial6,Fri Jun 17 2022 16:40:24 GMT+0100 (British Summer Time),English,test1,1655481778550,contrast_non-exhaustive,if1_un_ind.png,critical,pic3,22.573766666666668,group1,43011,ifp-willq-yellow,exhaustive,cons_n.jpeg,pic1,cautious,52,NA,4,1655480424124,,,pic1_pic3,82,"If the ANT block falls, the CONS block will fall.",willq,Elizabeth,<b>Will the CONS block fall?</b>,5a049dd65d06850001aff4f9,pic3,image_selection_01,if2_unn_horiz.png,if2_unu.png,non-exhaustive,50,contrast
3715,pic2,female,,trial21,Fri Jun 17 2022 16:40:24 GMT+0100 (British Summer Time),English,test2,1655481778550,pragmatic_literal,if1_nh.png,filler,pic3,22.573766666666668,group1,34340,ifp-willq-yellow,pragmatic,ant_n.jpeg,pic3,cautious,52,NA,5,1655480424124,,,pic2_pic3,82,NEITHER the ANT NOR the CONS block will fall.,neutral,Elizabeth,<b>Which blocks do you think will fall?</b>,5a049dd65d06850001aff4f9,pic1,image_selection_01,if2_nnh_right_ind.png,if2_nnn_horiz.png,literal,50,contrast
3715,pic2,female,,trial4,Fri Jun 17 2022 16:40:24 GMT+0100 (British Summer Time),English,test2,1655481778550,non-exhaustive,if1_un_ind.png,critical,pic2,22.573766666666668,group1,33356,ifp-willq-yellow,exhaustive,ant_u.jpeg,pic3,cautious,52,NA,6,1655480424124,,,pic3,82,"If the ANT block falls, the CONS block will fall.",ifp,Elizabeth,<b>What happens if the ANT block falls?</b>,5a049dd65d06850001aff4f9,pic1,image_selection_01,if1_un.png,if1_uu.png,non-exhaustive,-100,contrast
3715,pic1,female,,trial23,Fri Jun 17 2022 16:40:24 GMT+0100 (British Summer Time),English,test2,1655481778550,literal,ind_edge_hh.png,attention-check,pic3,22.573766666666668,group2,55044,ifp-willq-yellow,contrast,ant_ind_h.jpeg,pic2,cautious,52,NA,7,1655480424124,,pic3,pic3,82,NEITHER the YELLOW NOR the CONS block will fall.,neutral,Elizabeth,<b>Which blocks do you think will fall?</b>,5a049dd65d06850001aff4f9,pic3,image_selection_01,ind_edge_hnh.png,ind_edge_hnn_horiz.png,literal,100,contrast
3715,pic2,female,,trial20,Fri Jun 17 2022 16:40:24 GMT+0100 (British Summer Time),English,test2,1655481778550,pragmatic_literal,ind_edge_nn.png,filler,pic2,22.573766666666668,group2,47253,ifp-willq-yellow,pragmatic,ant_ind_n.jpeg,pic1,cautious,52,NA,1,1655480424124,,,pic2_pic3,82,The CONS block will fall.,neutral,Elizabeth,<b>Which blocks do you think will fall?</b>,5a049dd65d06850001aff4f9,pic3,image_selection_02,ind_edge_nhn.png,ind_edge_nhh.png,literal,50,contrast
3715,pic1,female,,trial3,Fri Jun 17 2022 16:40:24 GMT+0100 (British Summer Time),English,test2,1655481778550,exhaustive_non-exhaustive,if1_un_ind.png,critical,pic3,22.573766666666668,group1,32140,ifp-willq-yellow,exhaustive,ant_u.jpeg,pic2,cautious,52,NA,2,1655480424124,,,pic2_pic3,82,"If the ANT block falls, the CONS block will fall.",ifp,Elizabeth,<b>What happens if the ANT block falls?</b>,5a049dd65d06850001aff4f9,pic3,image_selection_02,if2_unn_horiz.png,if1_uu.png,non-exhaustive,50,contrast
3715,pic1,female,,trial19,Fri Jun 17 2022 16:40:24 GMT+0100 (British Summer Time),English,test3,1655481778550,pragmatic_literal,ind_edge_hh.png,filler,pic3,22.573766666666668,group1,35804,ifp-willq-yellow,pragmatic,ant_ind_h.jpeg,pic2,cautious,52,NA,3,1655480424124,,,pic2_pic3,82,The CONS block will NOT fall.,neutral,Elizabeth,<b>Which blocks do you think will fall?</b>,5a049dd65d06850001aff4f9,pic3,image_selection_02,ind_edge_hnh.png,ind_edge_hnn_horiz.png,literal,50,contrast
3715,pic2,female,,trial2,Fri Jun 17 2022 16:40:24 GMT+0100 (British Summer Time),English,test3,1655481778550,contrast_non-exhaustive,if1_un_ind.png,critical,pic2,22.573766666666668,group2,30725,ifp-willq-yellow,exhaustive,cons_n.jpeg,pic1,cautious,52,NA,4,1655480424124,,,pic1_pic3,82,"If the ANT block falls, the CONS block will fall.",willq,Elizabeth,<b>Will the CONS block fall?</b>,5a049dd65d06850001aff4f9,pic3,image_selection_02,if1_un.png,if2_unu.png,non-exhaustive,-100,contrast
3715,pic1,female,,trial24,Fri Jun 17 2022 16:40:24 GMT+0100 (British Summer Time),English,test3,1655481778550,literal,if1_nn_ind.png,filler,pic2,22.573766666666668,group1,30532,ifp-willq-yellow,pragmatic,cons_n.jpeg,pic2,cautious,52,NA,5,1655480424124,,pic2,pic3,82,The YELLOW and the CONS block will fall.,willq,Elizabeth,<b>Will the CONS block fall?</b>,5a049dd65d06850001aff4f9,pic3,image_selection_02,if2_nnh.png,if2_hnh_right.png,literal,-100,contrast
3715,pic2,female,,trial1,Fri Jun 17 2022 16:40:24 GMT+0100 (British Summer Time),English,test3,1655481778550,contrast_exhaustive_non-exhaustive,if1_un_ind.png,critical,pic3,22.573766666666668,group1,34020,ifp-willq-yellow,exhaustive,ant_u.jpeg,pic3,cautious,52,NA,6,1655480424124,,,pic1_pic2_pic3,82,"If the ANT block falls, the CONS block will fall.",ifp,Elizabeth,<b>What happens if the ANT block falls?</b>,5a049dd65d06850001aff4f9,pic1,image_selection_02,if1_un.png,if2_unu.png,non-exhaustive,-100,contrast
3714,NA,female,,if1_hn,Fri Jun 17 2022 17:40:48 GMT+0200 (South Africa Standard Time),English,NA,1655481756833,blue,NA,training,NA,21.808083333333332,NA,34609,same-ifp,NA,NA,NA,cautious,24,NA,1,1655480448348,Graduated College,blue|green,NA,82,NA,Use the buttons below to select all the blocks that you think will fall.<br/>(Multiple selections possible!),Elizabeth,NA,60740ef98a46b9cf7ac0fb30,NA,animation_buttons,NA,NA,NA,NA,NA
3714,NA,female,,if1_ln,Fri Jun 17 2022 17:40:48 GMT+0200 (South Africa Standard Time),English,NA,1655481756833,green,NA,training,NA,21.808083333333332,NA,15660,same-ifp,NA,NA,NA,cautious,24,NA,2,1655480448348,Graduated College,none,NA,82,NA,Use the buttons below to select all the blocks that you think will fall.<br/>(Multiple selections possible!),Elizabeth,NA,60740ef98a46b9cf7ac0fb30,NA,animation_buttons,NA,NA,NA,NA,NA
3714,NA,female,,if2_hnh,Fri Jun 17 2022 17:40:48 GMT+0200 (South Africa Standard Time),English,NA,1655481756833,none,NA,training,NA,21.808083333333332,NA,24693,same-ifp,NA,NA,NA,cautious,24,NA,3,1655480448348,Graduated College,blue|green|yellow,NA,82,NA,Use the buttons below to select all the blocks that you think will fall.<br/>(Multiple selections possible!),Elizabeth,NA,60740ef98a46b9cf7ac0fb30,NA,animation_buttons,NA,NA,NA,NA,NA
3714,NA,female,,if1_nn,Fri Jun 17 2022 17:40:48 GMT+0200 (South Africa Standard Time),English,NA,1655481756833,none,NA,training,NA,21.808083333333332,NA,12052,same-ifp,NA,NA,NA,cautious,24,NA,4,1655480448348,Graduated College,none,NA,82,NA,Use the buttons below to select all the blocks that you think will fall.<br/>(Multiple selections possible!),Elizabeth,NA,60740ef98a46b9cf7ac0fb30,NA,animation_buttons,NA,NA,NA,NA,NA
3714,NA,female,,if1_ind_hn,Fri Jun 17 2022 17:40:48 GMT+0200 (South Africa Standard Time),English,NA,1655481756833,green,NA,training,NA,21.808083333333332,NA,22533,same-ifp,NA,NA,NA,cautious,24,NA,5,1655480448348,Graduated College,green,NA,82,NA,Use the buttons below to select all the blocks that you think will fall.<br/>(Multiple selections possible!),Elizabeth,NA,60740ef98a46b9cf7ac0fb30,NA,animation_buttons,NA,NA,NA,NA,NA
3714,NA,female,,if2_nnl,Fri Jun 17 2022 17:40:48 GMT+0200 (South Africa Standard Time),English,NA,1655481756833,yellow,NA,training,NA,21.808083333333332,NA,11606,same-ifp,NA,NA,NA,cautious,24,NA,6,1655480448348,Graduated College,none,NA,82,NA,Use the buttons below to select all the blocks that you think will fall.<br/>(Multiple selections possible!),Elizabeth,NA,60740ef98a46b9cf7ac0fb30,NA,animation_buttons,NA,NA,NA,NA,NA
3714,NA,female,,if2_nnh,Fri Jun 17 2022 17:40:48 GMT+0200 (South Africa Standard Time),English,NA,1655481756833,none,NA,training,NA,21.808083333333332,NA,17162,same-ifp,NA,NA,NA,cautious,24,NA,7,1655480448348,Graduated College,blue|yellow,NA,82,NA,Use the buttons below to select all the blocks that you think will fall.<br/>(Multiple selections possible!),Elizabeth,NA,60740ef98a46b9cf7ac0fb30,NA,animation_buttons,NA,NA,NA,NA,NA
3714,NA,female,,independent_edge_nh,Fri Jun 17 2022 17:40:48 GMT+0200 (South Africa Standard Time),English,NA,1655481756833,green,NA,training,NA,21.808083333333332,NA,11612,same-ifp,NA,NA,NA,cautious,24,NA,8,1655480448348,Graduated College,green,NA,82,NA,Use the buttons below to select all the blocks that you think will fall.<br/>(Multiple selections possible!),Elizabeth,NA,60740ef98a46b9cf7ac0fb30,NA,animation_buttons,NA,NA,NA,NA,NA
3714,pic1,female,,trial7,Fri Jun 17 2022 17:40:48 GMT+0200 (South Africa Standard Time),English,practice,1655481756833,pragmatic,if1_un.png,practice,pic3,21.808083333333332,group2,63672,same-ifp,literal,cons_n.jpeg,pic2,cautious,24,NA,1,1655480448348,Graduated College,pic3,pic3,82,"If the ANT or the YELLOW block falls, the CONS block will fall.",neutral,Elizabeth,<b>Which blocks do you think will fall?</b>,60740ef98a46b9cf7ac0fb30,pic3,image_selection,if2_unn_horiz.png,if2_unu.png,pragmatic,100,contrast
3714,pic3,female,,trial11,Fri Jun 17 2022 17:40:48 GMT+0200 (South Africa Standard Time),English,practice,1655481756833,literal_literal,if1_un_ind.png,practice,pic3,21.808083333333332,group1,33439,same-ifp,literal,cons_n.jpeg,pic1,cautious,24,NA,2,1655480448348,Graduated College,pic2_pic3,pic2_pic3,82,"If the ANT block falls, the CONS block will fall.",willq,Elizabeth,<b>Will the CONS block fall?</b>,60740ef98a46b9cf7ac0fb30,pic2,image_selection,if1_un.png,if1_un_up.png,literal,50,contrast
3714,pic2,female,,trial25,Fri Jun 17 2022 17:40:48 GMT+0200 (South Africa Standard Time),English,practice,1655481756833,literal,if2_unn_horiz.png,practice,pic3,21.808083333333332,group2,33938,same-ifp,contrast,ant_u.jpeg,pic3,cautious,24,NA,3,1655480448348,Graduated College,pic3,pic3,82,"Even if the ANT block falls, the CONS block will NOT fall.",ifp,Elizabeth,<b>What happens if the ANT block falls?</b>,60740ef98a46b9cf7ac0fb30,pic1,image_selection,if1_uu.png,if1_un_ind.png,literal,100,contrast
3714,pic1,female,,trial8,Fri Jun 17 2022 17:40:48 GMT+0200 (South Africa Standard Time),English,practice,1655481756833,pragmatic,if2_nnn_horiz.png,practice,pic2,21.808083333333332,group2,23432,same-ifp,pragmatic,ant_n.jpeg,pic2,cautious,24,NA,4,1655480448348,Graduated College,,pic2,82,The YELLOW block will fall.,neutral,Elizabeth,<b>Which blocks do you think will fall?</b>,60740ef98a46b9cf7ac0fb30,pic3,image_selection,if2_nnh_right.png,if2_nnh.png,literal,100,contrast
3714,pic3,female,,trial24,Fri Jun 17 2022 17:40:48 GMT+0200 (South Africa Standard Time),English,test1,1655481756833,pragmatic,if1_nn_ind.png,filler,pic2,21.808083333333332,group1,25400,same-ifp,pragmatic,cons_n.jpeg,pic1,cautious,24,NA,1,1655480448348,Graduated College,pic2,pic2,82,The YELLOW and the CONS block will fall.,willq,Elizabeth,<b>Will the CONS block fall?</b>,60740ef98a46b9cf7ac0fb30,pic2,image_selection_01,if2_nnh.png,if2_hnh_right.png,literal,100,contrast
3714,pic3,female,,trial5,Fri Jun 17 2022 17:40:48 GMT+0200 (South Africa Standard Time),English,test1,1655481756833,exhaustive,if1_un_ind.png,critical,pic3,21.808083333333332,group1,19383,same-ifp,exhaustive,ant_u.jpeg,pic2,cautious,24,NA,2,1655480448348,Graduated College,,pic2,82,"If the ANT block falls, the CONS block will fall.",ifp,Elizabeth,<b>What happens if the ANT block falls?</b>,60740ef98a46b9cf7ac0fb30,pic1,image_selection_01,if2_unn_horiz.png,if2_unu.png,non-exhaustive,-100,contrast
3714,pic1,female,,trial20,Fri Jun 17 2022 17:40:48 GMT+0200 (South Africa Standard Time),English,test1,1655481756833,pragmatic,ind_edge_nn.png,filler,pic3,21.808083333333332,group1,24278,same-ifp,pragmatic,ant_ind_n.jpeg,pic3,cautious,24,NA,3,1655480448348,Graduated College,,pic2,82,The CONS block will fall.,neutral,Elizabeth,<b>Which blocks do you think will fall?</b>,60740ef98a46b9cf7ac0fb30,pic2,image_selection_01,ind_edge_nhn.png,ind_edge_nhh.png,literal,-100,contrast
3714,pic3,female,,trial6,Fri Jun 17 2022 17:40:48 GMT+0200 (South Africa Standard Time),English,test1,1655481756833,exhaustive_non-exhaustive,if1_un_ind.png,critical,pic2,21.808083333333332,group2,28612,same-ifp,exhaustive,cons_n.jpeg,pic2,cautious,24,NA,4,1655480448348,Graduated College,,pic2_pic3,82,"If the ANT block falls, the CONS block will fall.",willq,Elizabeth,<b>Will the CONS block fall?</b>,60740ef98a46b9cf7ac0fb30,pic1,image_selection_01,if2_unn_horiz.png,if2_unu.png,non-exhaustive,50,contrast
3714,pic2,female,,trial13,Fri Jun 17 2022 17:40:48 GMT+0200 (South Africa Standard Time),English,test2,1655481756833,literal,if2_unn_ind_horiz.png,filler,pic3,21.808083333333332,group1,27422,same-ifp,literal,cons_n.jpeg,pic1,cautious,24,NA,5,1655480448348,Graduated College,pic2_pic3,pic2,82,"If the ANT block falls, the CONS block will fall.",willq,Elizabeth,<b>Will the CONS block fall?</b>,60740ef98a46b9cf7ac0fb30,pic3,image_selection_01,if2_unn_horiz.png,if2_unn_up_horiz.png,literal,-100,contrast
3714,pic2,female,,trial4,Fri Jun 17 2022 17:40:48 GMT+0200 (South Africa Standard Time),English,test2,1655481756833,exhaustive_non-exhaustive,if1_un_ind.png,critical,pic3,21.808083333333332,group1,24746,same-ifp,exhaustive,ant_u.jpeg,pic3,cautious,24,NA,6,1655480448348,Graduated College,,pic2_pic3,82,"If the ANT block falls, the CONS block will fall.",ifp,Elizabeth,<b>What happens if the ANT block falls?</b>,60740ef98a46b9cf7ac0fb30,pic1,image_selection_01,if1_un.png,if1_uu.png,non-exhaustive,50,contrast
3714,pic2,female,,trial23,Fri Jun 17 2022 17:40:48 GMT+0200 (South Africa Standard Time),English,test2,1655481756833,literal,ind_edge_hh.png,attention-check,pic3,21.808083333333332,group2,16262,same-ifp,contrast,ant_ind_h.jpeg,pic3,cautious,24,NA,7,1655480448348,Graduated College,pic3,pic3,82,NEITHER the YELLOW NOR the CONS block will fall.,neutral,Elizabeth,<b>Which blocks do you think will fall?</b>,60740ef98a46b9cf7ac0fb30,pic1,image_selection_01,ind_edge_hnh.png,ind_edge_hnn_horiz.png,literal,100,contrast
3714,pic2,female,,trial19,Fri Jun 17 2022 17:40:48 GMT+0200 (South Africa Standard Time),English,test2,1655481756833,pragmatic_literal,ind_edge_hh.png,filler,pic2,21.808083333333332,group2,18600,same-ifp,pragmatic,ant_ind_h.jpeg,pic1,cautious,24,NA,1,1655480448348,Graduated College,,pic2_pic3,82,The CONS block will NOT fall.,neutral,Elizabeth,<b>Which blocks do you think will fall?</b>,60740ef98a46b9cf7ac0fb30,pic3,image_selection_02,ind_edge_hnh.png,ind_edge_hnn_horiz.png,literal,50,contrast
3714,pic3,female,,trial2,Fri Jun 17 2022 17:40:48 GMT+0200 (South Africa Standard Time),English,test2,1655481756833,exhaustive,if1_un_ind.png,critical,pic3,21.808083333333332,group1,22410,same-ifp,exhaustive,cons_n.jpeg,pic2,cautious,24,NA,2,1655480448348,Graduated College,,pic2,82,"If the ANT block falls, the CONS block will fall.",willq,Elizabeth,<b>Will the CONS block fall?</b>,60740ef98a46b9cf7ac0fb30,pic1,image_selection_02,if1_un.png,if2_unu.png,non-exhaustive,-100,contrast
3714,pic3,female,,trial21,Fri Jun 17 2022 17:40:48 GMT+0200 (South Africa Standard Time),English,test3,1655481756833,contrast_literal,if1_nh.png,filler,pic2,21.808083333333332,group1,32117,same-ifp,pragmatic,ant_n.jpeg,pic2,cautious,24,NA,3,1655480448348,Graduated College,,pic1_pic3,82,NEITHER the ANT NOR the CONS block will fall.,neutral,Elizabeth,<b>Which blocks do you think will fall?</b>,60740ef98a46b9cf7ac0fb30,pic1,image_selection_02,if2_nnh_right_ind.png,if2_nnn_horiz.png,literal,-100,contrast
3714,pic3,female,,trial3,Fri Jun 17 2022 17:40:48 GMT+0200 (South Africa Standard Time),English,test3,1655481756833,non-exhaustive,if1_un_ind.png,critical,pic2,21.808083333333332,group1,22792,same-ifp,exhaustive,ant_u.jpeg,pic1,cautious,24,NA,4,1655480448348,Graduated College,,pic3,82,"If the ANT block falls, the CONS block will fall.",ifp,Elizabeth,<b>What happens if the ANT block falls?</b>,60740ef98a46b9cf7ac0fb30,pic2,image_selection_02,if2_unn_horiz.png,if1_uu.png,non-exhaustive,-100,contrast
3714,pic2,female,,trial10,Fri Jun 17 2022 17:40:48 GMT+0200 (South Africa Standard Time),English,test3,1655481756833,literal,if1_un_ind.png,filler,pic2,21.808083333333332,group1,58254,same-ifp,literal,ant_u.jpeg,pic1,cautious,24,NA,5,1655480448348,Graduated College,pic2,pic2,82,"If the ANT block falls, the CONS block will fall.",ifp,Elizabeth,<b>What happens if the ANT block falls?</b>,60740ef98a46b9cf7ac0fb30,pic3,image_selection_02,if1_un.png,if2_unh_ind.png,contrast,100,contrast
3714,pic2,female,,trial1,Fri Jun 17 2022 17:40:48 GMT+0200 (South Africa Standard Time),English,test3,1655481756833,exhaustive_non-exhaustive,if1_un_ind.png,critical,pic3,21.808083333333332,group2,17810,same-ifp,exhaustive,ant_u.jpeg,pic3,cautious,24,NA,6,1655480448348,Graduated College,,pic2_pic3,82,"If the ANT block falls, the CONS block will fall.",ifp,Elizabeth,<b>What happens if the ANT block falls?</b>,60740ef98a46b9cf7ac0fb30,pic1,image_selection_02,if1_un.png,if2_unu.png,non-exhaustive,50,contrast
3711,NA,male,Interesting study,if1_hn,Fri Jun 17 2022 17:40:55 GMT+0200 (South Africa Standard Time),English,NA,1655481678356,blue,NA,training,NA,20.375983333333334,NA,48803,ifp-willq-several,NA,NA,NA,cautious,42,NA,1,1655480455797,Higher Degree,blue|green,NA,82,NA,Use the buttons below to select all the blocks that you think will fall.<br/>(Multiple selections possible!),Jessica,NA,600ad0fb206b70059718a0c5,NA,animation_buttons,NA,NA,NA,NA,NA
3711,NA,male,Interesting study,if1_ln,Fri Jun 17 2022 17:40:55 GMT+0200 (South Africa Standard Time),English,NA,1655481678356,blue|green,NA,training,NA,20.375983333333334,NA,19212,ifp-willq-several,NA,NA,NA,cautious,42,NA,2,1655480455797,Higher Degree,none,NA,82,NA,Use the buttons below to select all the blocks that you think will fall.<br/>(Multiple selections possible!),Jessica,NA,600ad0fb206b70059718a0c5,NA,animation_buttons,NA,NA,NA,NA,NA
3711,NA,male,Interesting study,independent_edge_nh,Fri Jun 17 2022 17:40:55 GMT+0200 (South Africa Standard Time),English,NA,1655481678356,blue,NA,training,NA,20.375983333333334,NA,13230,ifp-willq-several,NA,NA,NA,cautious,42,NA,3,1655480455797,Higher Degree,blue,NA,82,NA,Use the buttons below to select all the blocks that you think will fall.<br/>(Multiple selections possible!),Jessica,NA,600ad0fb206b70059718a0c5,NA,animation_buttons,NA,NA,NA,NA,NA
3711,NA,male,Interesting study,if2_nnl,Fri Jun 17 2022 17:40:55 GMT+0200 (South Africa Standard Time),English,NA,1655481678356,none,NA,training,NA,20.375983333333334,NA,12637,ifp-willq-several,NA,NA,NA,cautious,42,NA,4,1655480455797,Higher Degree,none,NA,82,NA,Use the buttons below to select all the blocks that you think will fall.<br/>(Multiple selections possible!),Jessica,NA,600ad0fb206b70059718a0c5,NA,animation_buttons,NA,NA,NA,NA,NA
3711,NA,male,Interesting study,if1_ind_hn,Fri Jun 17 2022 17:40:55 GMT+0200 (South Africa Standard Time),English,NA,1655481678356,blue,NA,training,NA,20.375983333333334,NA,16251,ifp-willq-several,NA,NA,NA,cautious,42,NA,5,1655480455797,Higher Degree,blue,NA,82,NA,Use the buttons below to select all the blocks that you think will fall.<br/>(Multiple selections possible!),Jessica,NA,600ad0fb206b70059718a0c5,NA,animation_buttons,NA,NA,NA,NA,NA
3711,NA,male,Interesting study,if1_nn,Fri Jun 17 2022 17:40:55 GMT+0200 (South Africa Standard Time),English,NA,1655481678356,none,NA,training,NA,20.375983333333334,NA,8283,ifp-willq-several,NA,NA,NA,cautious,42,NA,6,1655480455797,Higher Degree,none,NA,82,NA,Use the buttons below to select all the blocks that you think will fall.<br/>(Multiple selections possible!),Jessica,NA,600ad0fb206b70059718a0c5,NA,animation_buttons,NA,NA,NA,NA,NA
3711,NA,male,Interesting study,if2_nnh,Fri Jun 17 2022 17:40:55 GMT+0200 (South Africa Standard Time),English,NA,1655481678356,yellow,NA,training,NA,20.375983333333334,NA,13741,ifp-willq-several,NA,NA,NA,cautious,42,NA,7,1655480455797,Higher Degree,green|yellow,NA,82,NA,Use the buttons below to select all the blocks that you think will fall.<br/>(Multiple selections possible!),Jessica,NA,600ad0fb206b70059718a0c5,NA,animation_buttons,NA,NA,NA,NA,NA
3711,NA,male,Interesting study,if2_hnh,Fri Jun 17 2022 17:40:55 GMT+0200 (South Africa Standard Time),English,NA,1655481678356,blue|green|yellow,NA,training,NA,20.375983333333334,NA,27371,ifp-willq-several,NA,NA,NA,cautious,42,NA,8,1655480455797,Higher Degree,blue|green|yellow,NA,82,NA,Use the buttons below to select all the blocks that you think will fall.<br/>(Multiple selections possible!),Jessica,NA,600ad0fb206b70059718a0c5,NA,animation_buttons,NA,NA,NA,NA,NA
3711,pic3,male,Interesting study,trial25,Fri Jun 17 2022 17:40:55 GMT+0200 (South Africa Standard Time),English,practice,1655481678356,contrast_literal,if2_unn_horiz.png,practice,pic3,20.375983333333334,group2,74693,ifp-willq-several,contrast,ant_u.jpeg,pic2,cautious,42,NA,1,1655480455797,Higher Degree,pic3,pic2_pic3,82,"Even if the ANT block falls, the CONS block will NOT fall.",ifp,Jessica,<b>What happens if the ANT block falls?</b>,600ad0fb206b70059718a0c5,pic1,image_selection,if1_uu.png,if1_un_ind.png,literal,50,contrast
3711,pic1,male,Interesting study,trial11,Fri Jun 17 2022 17:40:55 GMT+0200 (South Africa Standard Time),English,practice,1655481678356,contrast_literal,if1_un_ind.png,practice,pic2,20.375983333333334,group2,53854,ifp-willq-several,literal,cons_n.jpeg,pic2,cautious,42,NA,2,1655480455797,Higher Degree,pic2_pic3,pic1_pic3,82,"If the ANT block falls, the CONS block will fall.",willq,Jessica,<b>Will the CONS block fall?</b>,600ad0fb206b70059718a0c5,pic3,image_selection,if1_un.png,if1_un_up.png,literal,-100,contrast
3711,pic2,male,Interesting study,trial8,Fri Jun 17 2022 17:40:55 GMT+0200 (South Africa Standard Time),English,practice,1655481678356,pragmatic_literal,if2_nnn_horiz.png,practice,pic2,20.375983333333334,group2,26812,ifp-willq-several,pragmatic,ant_n.jpeg,pic1,cautious,42,NA,3,1655480455797,Higher Degree,,pic2_pic3,82,The YELLOW block will fall.,neutral,Jessica,<b>Which blocks do you think will fall?</b>,600ad0fb206b70059718a0c5,pic3,image_selection,if2_nnh_right.png,if2_nnh.png,literal,50,contrast
3711,pic3,male,Interesting study,trial7,Fri Jun 17 2022 17:40:55 GMT+0200 (South Africa Standard Time),English,practice,1655481678356,pragmatic,if1_un.png,practice,pic3,20.375983333333334,group2,27596,ifp-willq-several,literal,cons_n.jpeg,pic1,cautious,42,NA,4,1655480455797,Higher Degree,pic3,pic3,82,"If the ANT or the YELLOW block falls, the CONS block will fall.",neutral,Jessica,<b>Which blocks do you think will fall?</b>,600ad0fb206b70059718a0c5,pic2,image_selection,if2_unn_horiz.png,if2_unu.png,pragmatic,100,contrast
3711,pic2,male,Interesting study,trial10,Fri Jun 17 2022 17:40:55 GMT+0200 (South Africa Standard Time),English,test1,1655481678356,contrast_literal,if1_un_ind.png,filler,pic2,20.375983333333334,group2,35534,ifp-willq-several,literal,ant_u.jpeg,pic1,cautious,42,NA,1,1655480455797,Higher Degree,pic2,pic1_pic2,82,"If the ANT block falls, the CONS block will fall.",ifp,Jessica,<b>What happens if the ANT block falls?</b>,600ad0fb206b70059718a0c5,pic3,image_selection_01,if1_un.png,if2_unh_ind.png,contrast,50,contrast
3711,pic1,male,Interesting study,trial2,Fri Jun 17 2022 17:40:55 GMT+0200 (South Africa Standard Time),English,test1,1655481678356,contrast_exhaustive,if1_un_ind.png,critical,pic2,20.375983333333334,group2,26638,ifp-willq-several,exhaustive,cons_n.jpeg,pic3,cautious,42,NA,2,1655480455797,Higher Degree,,pic1_pic2,82,"If the ANT block falls, the CONS block will fall.",willq,Jessica,<b>Will the CONS block fall?</b>,600ad0fb206b70059718a0c5,pic2,image_selection_01,if1_un.png,if2_unu.png,non-exhaustive,50,contrast
3711,pic3,male,Interesting study,trial24,Fri Jun 17 2022 17:40:55 GMT+0200 (South Africa Standard Time),English,test1,1655481678356,pragmatic_literal,if1_nn_ind.png,filler,pic2,20.375983333333334,group2,40108,ifp-willq-several,pragmatic,cons_n.jpeg,pic2,cautious,42,NA,3,1655480455797,Higher Degree,pic2,pic2_pic3,82,The YELLOW and the CONS block will fall.,willq,Jessica,<b>Will the CONS block fall?</b>,600ad0fb206b70059718a0c5,pic1,image_selection_01,if2_nnh.png,if2_hnh_right.png,literal,50,contrast
3711,pic2,male,Interesting study,trial5,Fri Jun 17 2022 17:40:55 GMT+0200 (South Africa Standard Time),English,test1,1655481678356,contrast_exhaustive,if1_un_ind.png,critical,pic3,20.375983333333334,group2,38590,ifp-willq-several,exhaustive,ant_u.jpeg,pic1,cautious,42,NA,4,1655480455797,Higher Degree,,pic1_pic2,82,"If the ANT block falls, the CONS block will fall.",ifp,Jessica,<b>What happens if the ANT block falls?</b>,600ad0fb206b70059718a0c5,pic3,image_selection_01,if2_unn_horiz.png,if2_unu.png,non-exhaustive,-100,contrast
3711,pic3,male,Interesting study,trial13,Fri Jun 17 2022 17:40:55 GMT+0200 (South Africa Standard Time),English,test2,1655481678356,contrast_literal,if2_unn_ind_horiz.png,filler,pic2,20.375983333333334,group2,36686,ifp-willq-several,literal,cons_n.jpeg,pic2,cautious,42,NA,5,1655480455797,Higher Degree,pic2_pic3,pic1_pic2,82,"If the ANT block falls, the CONS block will fall.",willq,Jessica,<b>Will the CONS block fall?</b>,600ad0fb206b70059718a0c5,pic1,image_selection_01,if2_unn_horiz.png,if2_unn_up_horiz.png,literal,50,contrast
3711,pic2,male,Interesting study,trial6,Fri Jun 17 2022 17:40:55 GMT+0200 (South Africa Standard Time),English,test2,1655481678356,contrast_exhaustive,if1_un_ind.png,critical,pic2,20.375983333333334,group1,32661,ifp-willq-several,exhaustive,cons_n.jpeg,pic1,cautious,42,NA,6,1655480455797,Higher Degree,,pic1_pic2,82,"If the ANT block falls, the CONS block will fall.",willq,Jessica,<b>Will the CONS block fall?</b>,600ad0fb206b70059718a0c5,pic3,image_selection_01,if2_unn_horiz.png,if2_unu.png,non-exhaustive,50,contrast
3711,pic3,male,Interesting study,trial23,Fri Jun 17 2022 17:40:55 GMT+0200 (South Africa Standard Time),English,test2,1655481678356,literal,ind_edge_hh.png,attention-check,pic3,20.375983333333334,group1,25189,ifp-willq-several,contrast,ant_ind_h.jpeg,pic1,cautious,42,NA,7,1655480455797,Higher Degree,pic3,pic3,82,NEITHER the YELLOW NOR the CONS block will fall.,neutral,Jessica,<b>Which blocks do you think will fall?</b>,600ad0fb206b70059718a0c5,pic2,image_selection_01,ind_edge_hnh.png,ind_edge_hnn_horiz.png,literal,100,contrast
3711,pic3,male,Interesting study,trial20,Fri Jun 17 2022 17:40:55 GMT+0200 (South Africa Standard Time),English,test2,1655481678356,pragmatic,ind_edge_nn.png,filler,pic3,20.375983333333334,group2,37143,ifp-willq-several,pragmatic,ant_ind_n.jpeg,pic2,cautious,42,NA,1,1655480455797,Higher Degree,,pic2,82,The CONS block will fall.,neutral,Jessica,<b>Which blocks do you think will fall?</b>,600ad0fb206b70059718a0c5,pic1,image_selection_02,ind_edge_nhn.png,ind_edge_nhh.png,literal,-100,contrast
3711,pic1,male,Interesting study,trial1,Fri Jun 17 2022 17:40:55 GMT+0200 (South Africa Standard Time),English,test2,1655481678356,contrast_exhaustive,if1_un_ind.png,critical,pic2,20.375983333333334,group1,21318,ifp-willq-several,exhaustive,ant_u.jpeg,pic2,cautious,42,NA,2,1655480455797,Higher Degree,,pic1_pic2,82,"If the ANT block falls, the CONS block will fall.",ifp,Jessica,<b>What happens if the ANT block falls?</b>,600ad0fb206b70059718a0c5,pic3,image_selection_02,if1_un.png,if2_unu.png,non-exhaustive,50,contrast
3711,pic2,male,Interesting study,trial19,Fri Jun 17 2022 17:40:55 GMT+0200 (South Africa Standard Time),English,test3,1655481678356,pragmatic_literal,ind_edge_hh.png,filler,pic3,20.375983333333334,group2,19526,ifp-willq-several,pragmatic,ant_ind_h.jpeg,pic3,cautious,42,NA,3,1655480455797,Higher Degree,,pic2_pic3,82,The CONS block will NOT fall.,neutral,Jessica,<b>Which blocks do you think will fall?</b>,600ad0fb206b70059718a0c5,pic1,image_selection_02,ind_edge_hnh.png,ind_edge_hnn_horiz.png,literal,50,contrast
3711,pic2,male,Interesting study,trial3,Fri Jun 17 2022 17:40:55 GMT+0200 (South Africa Standard Time),English,test3,1655481678356,non-exhaustive,if1_un_ind.png,critical,pic3,20.375983333333334,group1,23509,ifp-willq-several,exhaustive,ant_u.jpeg,pic3,cautious,42,NA,4,1655480455797,Higher Degree,,pic3,82,"If the ANT block falls, the CONS block will fall.",ifp,Jessica,<b>What happens if the ANT block falls?</b>,600ad0fb206b70059718a0c5,pic1,image_selection_02,if2_unn_horiz.png,if1_uu.png,non-exhaustive,100,contrast
3711,pic3,male,Interesting study,trial21,Fri Jun 17 2022 17:40:55 GMT+0200 (South Africa Standard Time),English,test3,1655481678356,pragmatic_literal,if1_nh.png,filler,pic2,20.375983333333334,group2,30166,ifp-willq-several,pragmatic,ant_n.jpeg,pic2,cautious,42,NA,5,1655480455797,Higher Degree,,pic2_pic3,82,NEITHER the ANT NOR the CONS block will fall.,neutral,Jessica,<b>Which blocks do you think will fall?</b>,600ad0fb206b70059718a0c5,pic1,image_selection_02,if2_nnh_right_ind.png,if2_nnn_horiz.png,literal,50,contrast
3711,pic1,male,Interesting study,trial4,Fri Jun 17 2022 17:40:55 GMT+0200 (South Africa Standard Time),English,test3,1655481678356,exhaustive_non-exhaustive,if1_un_ind.png,critical,pic3,20.375983333333334,group2,22230,ifp-willq-several,exhaustive,ant_u.jpeg,pic2,cautious,42,NA,6,1655480455797,Higher Degree,,pic2_pic3,82,"If the ANT block falls, the CONS block will fall.",ifp,Jessica,<b>What happens if the ANT block falls?</b>,600ad0fb206b70059718a0c5,pic3,image_selection_02,if1_un.png,if1_uu.png,non-exhaustive,50,contrast
3709,NA,male,,if1_hn,Fri Jun 17 2022 16:45:15 GMT+0100 (British Summer Time),English,NA,1655481606000,green,NA,training,NA,14.836633333333333,NA,41231,same,NA,NA,NA,cautious,64,NA,1,1655480715802,Graduated College,blue|green,NA,82,NA,Use the buttons below to select all the blocks that you think will fall.<br/>(Multiple selections possible!),Margaret,NA,5c33668916da980001530dab,NA,animation_buttons,NA,NA,NA,NA,NA
3709,NA,male,,if1_ln,Fri Jun 17 2022 16:45:15 GMT+0100 (British Summer Time),English,NA,1655481606000,blue|green,NA,training,NA,14.836633333333333,NA,17037,same,NA,NA,NA,cautious,64,NA,2,1655480715802,Graduated College,none,NA,82,NA,Use the buttons below to select all the blocks that you think will fall.<br/>(Multiple selections possible!),Margaret,NA,5c33668916da980001530dab,NA,animation_buttons,NA,NA,NA,NA,NA
3709,NA,male,,if2_hnh,Fri Jun 17 2022 16:45:15 GMT+0100 (British Summer Time),English,NA,1655481606000,blue|yellow,NA,training,NA,14.836633333333333,NA,16350,same,NA,NA,NA,cautious,64,NA,3,1655480715802,Graduated College,blue|green|yellow,NA,82,NA,Use the buttons below to select all the blocks that you think will fall.<br/>(Multiple selections possible!),Margaret,NA,5c33668916da980001530dab,NA,animation_buttons,NA,NA,NA,NA,NA
3709,NA,male,,if1_nn,Fri Jun 17 2022 16:45:15 GMT+0100 (British Summer Time),English,NA,1655481606000,none,NA,training,NA,14.836633333333333,NA,11295,same,NA,NA,NA,cautious,64,NA,4,1655480715802,Graduated College,none,NA,82,NA,Use the buttons below to select all the blocks that you think will fall.<br/>(Multiple selections possible!),Margaret,NA,5c33668916da980001530dab,NA,animation_buttons,NA,NA,NA,NA,NA
3709,NA,male,,independent_edge_nh,Fri Jun 17 2022 16:45:15 GMT+0100 (British Summer Time),English,NA,1655481606000,blue,NA,training,NA,14.836633333333333,NA,8526,same,NA,NA,NA,cautious,64,NA,5,1655480715802,Graduated College,blue,NA,82,NA,Use the buttons below to select all the blocks that you think will fall.<br/>(Multiple selections possible!),Margaret,NA,5c33668916da980001530dab,NA,animation_buttons,NA,NA,NA,NA,NA
3709,NA,male,,if2_nnl,Fri Jun 17 2022 16:45:15 GMT+0100 (British Summer Time),English,NA,1655481606000,none,NA,training,NA,14.836633333333333,NA,8822,same,NA,NA,NA,cautious,64,NA,6,1655480715802,Graduated College,none,NA,82,NA,Use the buttons below to select all the blocks that you think will fall.<br/>(Multiple selections possible!),Margaret,NA,5c33668916da980001530dab,NA,animation_buttons,NA,NA,NA,NA,NA
3709,NA,male,,if2_nnh,Fri Jun 17 2022 16:45:15 GMT+0100 (British Summer Time),English,NA,1655481606000,green|yellow,NA,training,NA,14.836633333333333,NA,15055,same,NA,NA,NA,cautious,64,NA,7,1655480715802,Graduated College,green|yellow,NA,82,NA,Use the buttons below to select all the blocks that you think will fall.<br/>(Multiple selections possible!),Margaret,NA,5c33668916da980001530dab,NA,animation_buttons,NA,NA,NA,NA,NA
3709,NA,male,,if1_ind_hn,Fri Jun 17 2022 16:45:15 GMT+0100 (British Summer Time),English,NA,1655481606000,blue,NA,training,NA,14.836633333333333,NA,17894,same,NA,NA,NA,cautious,64,NA,8,1655480715802,Graduated College,blue,NA,82,NA,Use the buttons below to select all the blocks that you think will fall.<br/>(Multiple selections possible!),Margaret,NA,5c33668916da980001530dab,NA,animation_buttons,NA,NA,NA,NA,NA
3709,pic1,male,,trial8,Fri Jun 17 2022 16:45:15 GMT+0100 (British Summer Time),English,practice,1655481606000,pragmatic,if2_nnn_horiz.png,practice,pic2,14.836633333333333,group2,112542,same,pragmatic,ant_n.jpeg,pic2,cautious,64,NA,1,1655480715802,Graduated College,,pic2,82,The YELLOW block will fall.,neutral,Margaret,<b>Which blocks do you think will fall?</b>,5c33668916da980001530dab,pic3,image_selection,if2_nnh_right.png,if2_nnh.png,literal,100,contrast
3709,pic2,male,,trial25,Fri Jun 17 2022 16:45:15 GMT+0100 (British Summer Time),English,practice,1655481606000,contrast_literal,if2_unn_horiz.png,practice,pic3,14.836633333333333,group2,29063,same,contrast,ant_u.jpeg,pic1,cautious,64,NA,2,1655480715802,Graduated College,pic3,pic1_pic3,82,"Even if the ANT block falls, the CONS block will NOT fall.",ifp,Margaret,<b>What happens if the ANT block falls?</b>,5c33668916da980001530dab,pic3,image_selection,if1_uu.png,if1_un_ind.png,literal,50,contrast
3709,pic1,male,,trial7,Fri Jun 17 2022 16:45:15 GMT+0100 (British Summer Time),English,practice,1655481606000,pragmatic,if1_un.png,practice,pic3,14.836633333333333,group2,24175,same,literal,cons_n.jpeg,pic2,cautious,64,NA,3,1655480715802,Graduated College,pic3,pic3,82,"If the ANT or the YELLOW block falls, the CONS block will fall.",neutral,Margaret,<b>Which blocks do you think will fall?</b>,5c33668916da980001530dab,pic3,image_selection,if2_unn_horiz.png,if2_unu.png,pragmatic,100,contrast
3709,pic2,male,,trial11,Fri Jun 17 2022 16:45:15 GMT+0100 (British Summer Time),English,practice,1655481606000,literal_literal,if1_un_ind.png,practice,pic2,14.836633333333333,group2,87359,same,literal,cons_n.jpeg,pic1,cautious,64,NA,4,1655480715802,Graduated College,pic2_pic3,pic2_pic3,82,"If the ANT block falls, the CONS block will fall.",willq,Margaret,<b>Will the CONS block fall?</b>,5c33668916da980001530dab,pic3,image_selection,if1_un.png,if1_un_up.png,literal,50,contrast
3709,pic2,male,,trial24,Fri Jun 17 2022 16:45:15 GMT+0100 (British Summer Time),English,test1,1655481606000,literal,if1_nn_ind.png,filler,pic2,14.836633333333333,group1,59943,same,pragmatic,cons_n.jpeg,pic3,cautious,64,NA,1,1655480715802,Graduated College,pic2,pic3,82,The YELLOW and the CONS block will fall.,willq,Margaret,<b>Will the CONS block fall?</b>,5c33668916da980001530dab,pic1,image_selection_01,if2_nnh.png,if2_hnh_right.png,literal,-100,contrast
3709,pic3,male,,trial2,Fri Jun 17 2022 16:45:15 GMT+0100 (British Summer Time),English,test1,1655481606000,exhaustive_non-exhaustive,if1_un_ind.png,critical,pic2,14.836633333333333,group1,43936,same,exhaustive,cons_n.jpeg,pic1,cautious,64,NA,2,1655480715802,Graduated College,,pic2_pic3,82,"If the ANT block falls, the CONS block will fall.",willq,Margaret,<b>Will the CONS block fall?</b>,5c33668916da980001530dab,pic2,image_selection_01,if1_un.png,if2_unu.png,non-exhaustive,50,contrast
3709,pic2,male,,trial20,Fri Jun 17 2022 16:45:15 GMT+0100 (British Summer Time),English,test1,1655481606000,pragmatic,ind_edge_nn.png,filler,pic3,14.836633333333333,group2,12983,same,pragmatic,ant_ind_n.jpeg,pic3,cautious,64,NA,3,1655480715802,Graduated College,,pic2,82,The CONS block will fall.,neutral,Margaret,<b>Which blocks do you think will fall?</b>,5c33668916da980001530dab,pic1,image_selection_01,ind_edge_nhn.png,ind_edge_nhh.png,literal,-100,contrast
3709,pic1,male,,trial4,Fri Jun 17 2022 16:45:15 GMT+0100 (British Summer Time),English,test1,1655481606000,non-exhaustive,if1_un_ind.png,critical,pic3,14.836633333333333,group1,14934,same,exhaustive,ant_u.jpeg,pic2,cautious,64,NA,4,1655480715802,Graduated College,,pic3,82,"If the ANT block falls, the CONS block will fall.",ifp,Margaret,<b>What happens if the ANT block falls?</b>,5c33668916da980001530dab,pic3,image_selection_01,if1_un.png,if1_uu.png,non-exhaustive,100,contrast
3709,pic1,male,,trial21,Fri Jun 17 2022 16:45:15 GMT+0100 (British Summer Time),English,test2,1655481606000,pragmatic_literal,if1_nh.png,filler,pic3,14.836633333333333,group1,23622,same,pragmatic,ant_n.jpeg,pic2,cautious,64,NA,5,1655480715802,Graduated College,,pic2_pic3,82,NEITHER the ANT NOR the CONS block will fall.,neutral,Margaret,<b>Which blocks do you think will fall?</b>,5c33668916da980001530dab,pic3,image_selection_01,if2_nnh_right_ind.png,if2_nnn_horiz.png,literal,50,contrast
3709,pic1,male,,trial5,Fri Jun 17 2022 16:45:15 GMT+0100 (British Summer Time),English,test2,1655481606000,exhaustive,if1_un_ind.png,critical,pic3,14.836633333333333,group1,34239,same,exhaustive,ant_u.jpeg,pic2,cautious,64,NA,6,1655480715802,Graduated College,,pic2,82,"If the ANT block falls, the CONS block will fall.",ifp,Margaret,<b>What happens if the ANT block falls?</b>,5c33668916da980001530dab,pic3,image_selection_01,if2_unn_horiz.png,if2_unu.png,non-exhaustive,-100,contrast
3709,pic2,male,,trial23,Fri Jun 17 2022 16:45:15 GMT+0100 (British Summer Time),English,test2,1655481606000,literal,ind_edge_hh.png,attention-check,pic3,14.836633333333333,group2,17191,same,contrast,ant_ind_h.jpeg,pic1,cautious,64,NA,7,1655480715802,Graduated College,pic3,pic3,82,NEITHER the YELLOW NOR the CONS block will fall.,neutral,Margaret,<b>Which blocks do you think will fall?</b>,5c33668916da980001530dab,pic3,image_selection_01,ind_edge_hnh.png,ind_edge_hnn_horiz.png,literal,100,contrast
3709,pic2,male,,trial13,Fri Jun 17 2022 16:45:15 GMT+0100 (British Summer Time),English,test2,1655481606000,literal_literal,if2_unn_ind_horiz.png,filler,pic2,14.836633333333333,group1,23992,same,literal,cons_n.jpeg,pic3,cautious,64,NA,1,1655480715802,Graduated College,pic2_pic3,pic2_pic3,82,"If the ANT block falls, the CONS block will fall.",willq,Margaret,<b>Will the CONS block fall?</b>,5c33668916da980001530dab,pic1,image_selection_02,if2_unn_horiz.png,if2_unn_up_horiz.png,literal,50,contrast
3709,pic1,male,,trial3,Fri Jun 17 2022 16:45:15 GMT+0100 (British Summer Time),English,test2,1655481606000,exhaustive_non-exhaustive,if1_un_ind.png,critical,pic3,14.836633333333333,group2,14398,same,exhaustive,ant_u.jpeg,pic2,cautious,64,NA,2,1655480715802,Graduated College,,pic2_pic3,82,"If the ANT block falls, the CONS block will fall.",ifp,Margaret,<b>What happens if the ANT block falls?</b>,5c33668916da980001530dab,pic3,image_selection_02,if2_unn_horiz.png,if1_uu.png,non-exhaustive,50,contrast
3709,pic1,male,,trial10,Fri Jun 17 2022 16:45:15 GMT+0100 (British Summer Time),English,test3,1655481606000,literal,if1_un_ind.png,filler,pic2,14.836633333333333,group1,13511,same,literal,ant_u.jpeg,pic3,cautious,64,NA,3,1655480715802,Graduated College,pic2,pic2,82,"If the ANT block falls, the CONS block will fall.",ifp,Margaret,<b>What happens if the ANT block falls?</b>,5c33668916da980001530dab,pic2,image_selection_02,if1_un.png,if2_unh_ind.png,contrast,100,contrast
3709,pic3,male,,trial1,Fri Jun 17 2022 16:45:15 GMT+0100 (British Summer Time),English,test3,1655481606000,exhaustive_non-exhaustive,if1_un_ind.png,critical,pic2,14.836633333333333,group1,24670,same,exhaustive,ant_u.jpeg,pic2,cautious,64,NA,4,1655480715802,Graduated College,,pic2_pic3,82,"If the ANT block falls, the CONS block will fall.",ifp,Margaret,<b>What happens if the ANT block falls?</b>,5c33668916da980001530dab,pic1,image_selection_02,if1_un.png,if2_unu.png,non-exhaustive,50,contrast
3709,pic3,male,,trial19,Fri Jun 17 2022 16:45:15 GMT+0100 (British Summer Time),English,test3,1655481606000,pragmatic_literal,ind_edge_hh.png,filler,pic3,14.836633333333333,group1,15855,same,pragmatic,ant_ind_h.jpeg,pic1,cautious,64,NA,5,1655480715802,Graduated College,,pic2_pic3,82,The CONS block will NOT fall.,neutral,Margaret,<b>Which blocks do you think will fall?</b>,5c33668916da980001530dab,pic2,image_selection_02,ind_edge_hnh.png,ind_edge_hnn_horiz.png,literal,50,contrast
3709,pic1,male,,trial6,Fri Jun 17 2022 16:45:15 GMT+0100 (British Summer Time),English,test3,1655481606000,exhaustive_non-exhaustive,if1_un_ind.png,critical,pic3,14.836633333333333,group1,12558,same,exhaustive,cons_n.jpeg,pic2,cautious,64,NA,6,1655480715802,Graduated College,,pic2_pic3,82,"If the ANT block falls, the CONS block will fall.",willq,Margaret,<b>Will the CONS block fall?</b>,5c33668916da980001530dab,pic3,image_selection_02,if2_unn_horiz.png,if2_unu.png,non-exhaustive,50,contrast
3704,NA,female,,if1_hn,Fri Jun 17 2022 16:40:39 GMT+0100 (British Summer Time),english,NA,1655481561001,green,NA,training,NA,18.699816666666667,NA,70294,ifp-willq-several,NA,NA,NA,cautious,39,NA,1,1655480439012,Higher Degree,blue|green,NA,82,NA,Use the buttons below to select all the blocks that you think will fall.<br/>(Multiple selections possible!),Linda,NA,5b79e92cdb11320001c3d5da,NA,animation_buttons,NA,NA,NA,NA,NA
3704,NA,female,,if1_ln,Fri Jun 17 2022 16:40:39 GMT+0100 (British Summer Time),english,NA,1655481561001,blue|green,NA,training,NA,18.699816666666667,NA,13317,ifp-willq-several,NA,NA,NA,cautious,39,NA,2,1655480439012,Higher Degree,none,NA,82,NA,Use the buttons below to select all the blocks that you think will fall.<br/>(Multiple selections possible!),Linda,NA,5b79e92cdb11320001c3d5da,NA,animation_buttons,NA,NA,NA,NA,NA
3704,NA,female,,if2_hnh,Fri Jun 17 2022 16:40:39 GMT+0100 (British Summer Time),english,NA,1655481561001,blue|yellow,NA,training,NA,18.699816666666667,NA,21923,ifp-willq-several,NA,NA,NA,cautious,39,NA,3,1655480439012,Higher Degree,blue|green|yellow,NA,82,NA,Use the buttons below to select all the blocks that you think will fall.<br/>(Multiple selections possible!),Linda,NA,5b79e92cdb11320001c3d5da,NA,animation_buttons,NA,NA,NA,NA,NA
3704,NA,female,,if2_nnl,Fri Jun 17 2022 16:40:39 GMT+0100 (British Summer Time),english,NA,1655481561001,green|yellow,NA,training,NA,18.699816666666667,NA,13367,ifp-willq-several,NA,NA,NA,cautious,39,NA,4,1655480439012,Higher Degree,none,NA,82,NA,Use the buttons below to select all the blocks that you think will fall.<br/>(Multiple selections possible!),Linda,NA,5b79e92cdb11320001c3d5da,NA,animation_buttons,NA,NA,NA,NA,NA
3704,NA,female,,if2_nnh,Fri Jun 17 2022 16:40:39 GMT+0100 (British Summer Time),english,NA,1655481561001,yellow,NA,training,NA,18.699816666666667,NA,14588,ifp-willq-several,NA,NA,NA,cautious,39,NA,5,1655480439012,Higher Degree,blue|yellow,NA,82,NA,Use the buttons below to select all the blocks that you think will fall.<br/>(Multiple selections possible!),Linda,NA,5b79e92cdb11320001c3d5da,NA,animation_buttons,NA,NA,NA,NA,NA
3704,NA,female,,if1_nn,Fri Jun 17 2022 16:40:39 GMT+0100 (British Summer Time),english,NA,1655481561001,none,NA,training,NA,18.699816666666667,NA,26164,ifp-willq-several,NA,NA,NA,cautious,39,NA,6,1655480439012,Higher Degree,none,NA,82,NA,Use the buttons below to select all the blocks that you think will fall.<br/>(Multiple selections possible!),Linda,NA,5b79e92cdb11320001c3d5da,NA,animation_buttons,NA,NA,NA,NA,NA
3704,NA,female,,if1_ind_hn,Fri Jun 17 2022 16:40:39 GMT+0100 (British Summer Time),english,NA,1655481561001,blue|green,NA,training,NA,18.699816666666667,NA,14083,ifp-willq-several,NA,NA,NA,cautious,39,NA,7,1655480439012,Higher Degree,blue,NA,82,NA,Use the buttons below to select all the blocks that you think will fall.<br/>(Multiple selections possible!),Linda,NA,5b79e92cdb11320001c3d5da,NA,animation_buttons,NA,NA,NA,NA,NA
3704,NA,female,,independent_edge_nh,Fri Jun 17 2022 16:40:39 GMT+0100 (British Summer Time),english,NA,1655481561001,green,NA,training,NA,18.699816666666667,NA,8731,ifp-willq-several,NA,NA,NA,cautious,39,NA,8,1655480439012,Higher Degree,green,NA,82,NA,Use the buttons below to select all the blocks that you think will fall.<br/>(Multiple selections possible!),Linda,NA,5b79e92cdb11320001c3d5da,NA,animation_buttons,NA,NA,NA,NA,NA
3704,pic1,female,,trial25,Fri Jun 17 2022 16:40:39 GMT+0100 (British Summer Time),english,practice,1655481561001,literal,if2_unn_horiz.png,practice,pic3,18.699816666666667,group2,44112,ifp-willq-several,contrast,ant_u.jpeg,pic3,cautious,39,NA,1,1655480439012,Higher Degree,pic3,pic3,82,"Even if the ANT block falls, the CONS block will NOT fall.",ifp,Linda,<b>What happens if the ANT block falls?</b>,5b79e92cdb11320001c3d5da,pic2,image_selection,if1_uu.png,if1_un_ind.png,literal,100,contrast
3704,pic2,female,,trial11,Fri Jun 17 2022 16:40:39 GMT+0100 (British Summer Time),english,practice,1655481561001,literal_literal,if1_un_ind.png,practice,pic2,18.699816666666667,group2,23240,ifp-willq-several,literal,cons_n.jpeg,pic1,cautious,39,NA,2,1655480439012,Higher Degree,pic2_pic3,pic2_pic3,82,"If the ANT block falls, the CONS block will fall.",willq,Linda,<b>Will the CONS block fall?</b>,5b79e92cdb11320001c3d5da,pic3,image_selection,if1_un.png,if1_un_up.png,literal,50,contrast
3704,pic2,female,,trial8,Fri Jun 17 2022 16:40:39 GMT+0100 (British Summer Time),english,practice,1655481561001,pragmatic_literal,if2_nnn_horiz.png,practice,pic2,18.699816666666667,group2,22491,ifp-willq-several,pragmatic,ant_n.jpeg,pic3,cautious,39,NA,3,1655480439012,Higher Degree,,pic2_pic3,82,The YELLOW block will fall.,neutral,Linda,<b>Which blocks do you think will fall?</b>,5b79e92cdb11320001c3d5da,pic1,image_selection,if2_nnh_right.png,if2_nnh.png,literal,50,contrast
3704,pic2,female,,trial7,Fri Jun 17 2022 16:40:39 GMT+0100 (British Summer Time),english,practice,1655481561001,pragmatic,if1_un.png,practice,pic3,18.699816666666667,group2,14446,ifp-willq-several,literal,cons_n.jpeg,pic3,cautious,39,NA,4,1655480439012,Higher Degree,pic3,pic3,82,"If the ANT or the YELLOW block falls, the CONS block will fall.",neutral,Linda,<b>Which blocks do you think will fall?</b>,5b79e92cdb11320001c3d5da,pic1,image_selection,if2_unn_horiz.png,if2_unu.png,pragmatic,100,contrast
3704,pic1,female,,trial13,Fri Jun 17 2022 16:40:39 GMT+0100 (British Summer Time),english,test1,1655481561001,literal,if2_unn_ind_horiz.png,filler,pic2,18.699816666666667,group2,16152,ifp-willq-several,literal,cons_n.jpeg,pic2,cautious,39,NA,1,1655480439012,Higher Degree,pic2_pic3,pic3,82,"If the ANT block falls, the CONS block will fall.",willq,Linda,<b>Will the CONS block fall?</b>,5b79e92cdb11320001c3d5da,pic3,image_selection_01,if2_unn_horiz.png,if2_unn_up_horiz.png,literal,-100,contrast
3704,pic2,female,,trial1,Fri Jun 17 2022 16:40:39 GMT+0100 (British Summer Time),english,test1,1655481561001,contrast_exhaustive,if1_un_ind.png,critical,pic2,18.699816666666667,group2,55262,ifp-willq-several,exhaustive,ant_u.jpeg,pic1,cautious,39,NA,2,1655480439012,Higher Degree,,pic1_pic2,82,"If the ANT block falls, the CONS block will fall.",ifp,Linda,<b>What happens if the ANT block falls?</b>,5b79e92cdb11320001c3d5da,pic3,image_selection_01,if1_un.png,if2_unu.png,non-exhaustive,50,contrast
3704,pic1,female,,trial24,Fri Jun 17 2022 16:40:39 GMT+0100 (British Summer Time),english,test1,1655481561001,pragmatic,if1_nn_ind.png,filler,pic2,18.699816666666667,group2,29109,ifp-willq-several,pragmatic,cons_n.jpeg,pic3,cautious,39,NA,3,1655480439012,Higher Degree,pic2,pic2,82,The YELLOW and the CONS block will fall.,willq,Linda,<b>Will the CONS block fall?</b>,5b79e92cdb11320001c3d5da,pic2,image_selection_01,if2_nnh.png,if2_hnh_right.png,literal,100,contrast
3704,pic3,female,,trial5,Fri Jun 17 2022 16:40:39 GMT+0100 (British Summer Time),english,test1,1655481561001,non-exhaustive,if1_un_ind.png,critical,pic3,18.699816666666667,group1,28117,ifp-willq-several,exhaustive,ant_u.jpeg,pic1,cautious,39,NA,4,1655480439012,Higher Degree,,pic3,82,"If the ANT block falls, the CONS block will fall.",ifp,Linda,<b>What happens if the ANT block falls?</b>,5b79e92cdb11320001c3d5da,pic2,image_selection_01,if2_unn_horiz.png,if2_unu.png,non-exhaustive,100,contrast
3704,pic1,female,,trial21,Fri Jun 17 2022 16:40:39 GMT+0100 (British Summer Time),english,test2,1655481561001,pragmatic,if1_nh.png,filler,pic3,18.699816666666667,group2,18305,ifp-willq-several,pragmatic,ant_n.jpeg,pic3,cautious,39,NA,5,1655480439012,Higher Degree,,pic2,82,NEITHER the ANT NOR the CONS block will fall.,neutral,Linda,<b>Which blocks do you think will fall?</b>,5b79e92cdb11320001c3d5da,pic2,image_selection_01,if2_nnh_right_ind.png,if2_nnn_horiz.png,literal,-100,contrast
3704,pic1,female,,trial3,Fri Jun 17 2022 16:40:39 GMT+0100 (British Summer Time),english,test2,1655481561001,exhaustive,if1_un_ind.png,critical,pic3,18.699816666666667,group1,18497,ifp-willq-several,exhaustive,ant_u.jpeg,pic2,cautious,39,NA,6,1655480439012,Higher Degree,,pic2,82,"If the ANT block falls, the CONS block will fall.",ifp,Linda,<b>What happens if the ANT block falls?</b>,5b79e92cdb11320001c3d5da,pic3,image_selection_01,if2_unn_horiz.png,if1_uu.png,non-exhaustive,-100,contrast
3704,pic1,female,,trial23,Fri Jun 17 2022 16:40:39 GMT+0100 (British Summer Time),english,test2,1655481561001,literal,ind_edge_hh.png,attention-check,pic3,18.699816666666667,group1,13562,ifp-willq-several,contrast,ant_ind_h.jpeg,pic3,cautious,39,NA,7,1655480439012,Higher Degree,pic3,pic3,82,NEITHER the YELLOW NOR the CONS block will fall.,neutral,Linda,<b>Which blocks do you think will fall?</b>,5b79e92cdb11320001c3d5da,pic2,image_selection_01,ind_edge_hnh.png,ind_edge_hnn_horiz.png,literal,100,contrast
3704,pic1,female,,trial10,Fri Jun 17 2022 16:40:39 GMT+0100 (British Summer Time),english,test2,1655481561001,literal,if1_un_ind.png,filler,pic2,18.699816666666667,group1,14285,ifp-willq-several,literal,ant_u.jpeg,pic3,cautious,39,NA,1,1655480439012,Higher Degree,pic2,pic2,82,"If the ANT block falls, the CONS block will fall.",ifp,Linda,<b>What happens if the ANT block falls?</b>,5b79e92cdb11320001c3d5da,pic2,image_selection_02,if1_un.png,if2_unh_ind.png,contrast,100,contrast
3704,pic2,female,,trial4,Fri Jun 17 2022 16:40:39 GMT+0100 (British Summer Time),english,test2,1655481561001,non-exhaustive,if1_un_ind.png,critical,pic2,18.699816666666667,group1,27869,ifp-willq-several,exhaustive,ant_u.jpeg,pic3,cautious,39,NA,2,1655480439012,Higher Degree,,pic3,82,"If the ANT block falls, the CONS block will fall.",ifp,Linda,<b>What happens if the ANT block falls?</b>,5b79e92cdb11320001c3d5da,pic1,image_selection_02,if1_un.png,if1_uu.png,non-exhaustive,-100,contrast
3704,pic3,female,,trial19,Fri Jun 17 2022 16:40:39 GMT+0100 (British Summer Time),english,test3,1655481561001,pragmatic,ind_edge_hh.png,filler,pic2,18.699816666666667,group1,24519,ifp-willq-several,pragmatic,ant_ind_h.jpeg,pic1,cautious,39,NA,3,1655480439012,Higher Degree,,pic2,82,The CONS block will NOT fall.,neutral,Linda,<b>Which blocks do you think will fall?</b>,5b79e92cdb11320001c3d5da,pic2,image_selection_02,ind_edge_hnh.png,ind_edge_hnn_horiz.png,literal,100,contrast
3704,pic3,female,,trial6,Fri Jun 17 2022 16:40:39 GMT+0100 (British Summer Time),english,test3,1655481561001,exhaustive_non-exhaustive,if1_un_ind.png,critical,pic3,18.699816666666667,group1,17825,ifp-willq-several,exhaustive,cons_n.jpeg,pic2,cautious,39,NA,4,1655480439012,Higher Degree,,pic2_pic3,82,"If the ANT block falls, the CONS block will fall.",willq,Linda,<b>Will the CONS block fall?</b>,5b79e92cdb11320001c3d5da,pic1,image_selection_02,if2_unn_horiz.png,if2_unu.png,non-exhaustive,50,contrast
3704,pic2,female,,trial20,Fri Jun 17 2022 16:40:39 GMT+0100 (British Summer Time),english,test3,1655481561001,contrast,ind_edge_nn.png,filler,pic3,18.699816666666667,group2,12150,ifp-willq-several,pragmatic,ant_ind_n.jpeg,pic3,cautious,39,NA,5,1655480439012,Higher Degree,,pic1,82,The CONS block will fall.,neutral,Linda,<b>Which blocks do you think will fall?</b>,5b79e92cdb11320001c3d5da,pic1,image_selection_02,ind_edge_nhn.png,ind_edge_nhh.png,literal,-100,contrast
3704,pic1,female,,trial2,Fri Jun 17 2022 16:40:39 GMT+0100 (British Summer Time),english,test3,1655481561001,exhaustive,if1_un_ind.png,critical,pic2,18.699816666666667,group2,54106,ifp-willq-several,exhaustive,cons_n.jpeg,pic2,cautious,39,NA,6,1655480439012,Higher Degree,,pic2,82,"If the ANT block falls, the CONS block will fall.",willq,Linda,<b>Will the CONS block fall?</b>,5b79e92cdb11320001c3d5da,pic3,image_selection_02,if1_un.png,if2_unu.png,non-exhaustive,100,contrast
3703,NA,male,,if1_hn,Fri Jun 17 2022 09:40:49 GMT-0600 (Mexican Pacific Daylight Time),English,NA,1655481556448,blue,NA,training,NA,18.456683333333334,NA,28787,ifp-several,NA,NA,NA,cautious,56,NA,1,1655480449047,Graduated College,blue|green,NA,82,NA,Use the buttons below to select all the blocks that you think will fall.<br/>(Multiple selections possible!),Mary,NA,614f70b55373b6760cb9d5c9,NA,animation_buttons,NA,NA,NA,NA,NA
3703,NA,male,,if1_ln,Fri Jun 17 2022 09:40:49 GMT-0600 (Mexican Pacific Daylight Time),English,NA,1655481556448,none,NA,training,NA,18.456683333333334,NA,11991,ifp-several,NA,NA,NA,cautious,56,NA,2,1655480449047,Graduated College,none,NA,82,NA,Use the buttons below to select all the blocks that you think will fall.<br/>(Multiple selections possible!),Mary,NA,614f70b55373b6760cb9d5c9,NA,animation_buttons,NA,NA,NA,NA,NA
3703,NA,male,,if2_nnh,Fri Jun 17 2022 09:40:49 GMT-0600 (Mexican Pacific Daylight Time),English,NA,1655481556448,green|yellow,NA,training,NA,18.456683333333334,NA,16065,ifp-several,NA,NA,NA,cautious,56,NA,3,1655480449047,Graduated College,green|yellow,NA,82,NA,Use the buttons below to select all the blocks that you think will fall.<br/>(Multiple selections possible!),Mary,NA,614f70b55373b6760cb9d5c9,NA,animation_buttons,NA,NA,NA,NA,NA
3703,NA,male,,if2_nnl,Fri Jun 17 2022 09:40:49 GMT-0600 (Mexican Pacific Daylight Time),English,NA,1655481556448,none,NA,training,NA,18.456683333333334,NA,9999,ifp-several,NA,NA,NA,cautious,56,NA,4,1655480449047,Graduated College,none,NA,82,NA,Use the buttons below to select all the blocks that you think will fall.<br/>(Multiple selections possible!),Mary,NA,614f70b55373b6760cb9d5c9,NA,animation_buttons,NA,NA,NA,NA,NA
3703,NA,male,,if1_ind_hn,Fri Jun 17 2022 09:40:49 GMT-0600 (Mexican Pacific Daylight Time),English,NA,1655481556448,blue,NA,training,NA,18.456683333333334,NA,10065,ifp-several,NA,NA,NA,cautious,56,NA,5,1655480449047,Graduated College,blue,NA,82,NA,Use the buttons below to select all the blocks that you think will fall.<br/>(Multiple selections possible!),Mary,NA,614f70b55373b6760cb9d5c9,NA,animation_buttons,NA,NA,NA,NA,NA
3703,NA,male,,if1_nn,Fri Jun 17 2022 09:40:49 GMT-0600 (Mexican Pacific Daylight Time),English,NA,1655481556448,none,NA,training,NA,18.456683333333334,NA,8605,ifp-several,NA,NA,NA,cautious,56,NA,6,1655480449047,Graduated College,none,NA,82,NA,Use the buttons below to select all the blocks that you think will fall.<br/>(Multiple selections possible!),Mary,NA,614f70b55373b6760cb9d5c9,NA,animation_buttons,NA,NA,NA,NA,NA
3703,NA,male,,independent_edge_nh,Fri Jun 17 2022 09:40:49 GMT-0600 (Mexican Pacific Daylight Time),English,NA,1655481556448,green,NA,training,NA,18.456683333333334,NA,5759,ifp-several,NA,NA,NA,cautious,56,NA,7,1655480449047,Graduated College,green,NA,82,NA,Use the buttons below to select all the blocks that you think will fall.<br/>(Multiple selections possible!),Mary,NA,614f70b55373b6760cb9d5c9,NA,animation_buttons,NA,NA,NA,NA,NA
3703,NA,male,,if2_hnh,Fri Jun 17 2022 09:40:49 GMT-0600 (Mexican Pacific Daylight Time),English,NA,1655481556448,blue|green|yellow,NA,training,NA,18.456683333333334,NA,22842,ifp-several,NA,NA,NA,cautious,56,NA,8,1655480449047,Graduated College,blue|green|yellow,NA,82,NA,Use the buttons below to select all the blocks that you think will fall.<br/>(Multiple selections possible!),Mary,NA,614f70b55373b6760cb9d5c9,NA,animation_buttons,NA,NA,NA,NA,NA
3703,pic3,male,,trial7,Fri Jun 17 2022 09:40:49 GMT-0600 (Mexican Pacific Daylight Time),English,practice,1655481556448,pragmatic,if1_un.png,practice,pic3,18.456683333333334,group1,35734,ifp-several,literal,cons_n.jpeg,pic2,cautious,56,NA,1,1655480449047,Graduated College,pic3,pic3,82,"If the ANT or the YELLOW block falls, the CONS block will fall.",neutral,Mary,<b>Which blocks do you think will fall?</b>,614f70b55373b6760cb9d5c9,pic1,image_selection,if2_unn_horiz.png,if2_unu.png,pragmatic,100,contrast
